* Measurement data measured by REW V5.20
* Source: USB-C to 3.5mm Headphone Jack Adapter, USB-C to 3.5mm Headphone Jack Adapter, 0, volume: 0.138
* Format: 256k Log Swept Sine, 1 sweep at -12.0 dBFS with no timing reference
* Dated: May 21, 2022 10:55:50 PM
* REW Settings:
*  C-weighting compensation: Off
*  Target level: 75.0 dB
* Note: ; 
* Measurement: off R
* Smoothing: None
* Frequency Step: 1/48 octave
* Start Frequency: 20.300 Hz
*
* Freq(Hz)	SPL(dB)	Phase(degrees)
20.299999	104.457748	-171.0126
20.600000	104.469994	-171.5657
20.900000	104.475327	-172.0499
21.200001	104.480385	-172.5312
21.400000	104.484756	-172.8593
21.799999	104.495560	-173.5383
22.000000	104.501457	-173.8866
22.400000	104.513062	-174.5858
22.700001	104.521118	-175.0976
23.000000	104.528831	-175.5918
23.299999	104.536469	-176.0694
23.600000	104.543991	-176.5374
24.000000	104.552795	-177.1602
24.299999	104.557434	-177.6323
24.700001	104.560165	-178.2675
25.000000	104.559975	-178.7426
25.400000	104.558228	-179.3664
25.799999	104.556870	-179.9756
26.200001	104.557030	179.4274
26.500000	104.558052	178.9856
26.900000	104.559738	178.4029
27.200001	104.560669	177.9709
27.600000	104.560936	177.4031
28.000000	104.560020	176.8445
28.500000	104.557472	176.1576
29.000000	104.553619	175.4800
29.500000	104.548401	174.8104
30.000000	104.541588	174.1505
30.400000	104.534996	173.6313
30.700001	104.529617	173.2477
31.100000	104.522179	172.7435
31.500000	104.514793	172.2462
32.000000	104.505783	171.6311
32.500000	104.496506	171.0220
33.000000	104.486206	170.4209
33.500000	104.474487	169.8307
34.000000	104.461517	169.2515
34.500000	104.447769	168.6815
35.000000	104.433952	168.1188
35.500000	104.420570	167.5618
36.000000	104.407570	167.0096
36.500000	104.394241	166.4630
37.000000	104.379814	165.9242
37.500000	104.364075	165.3940
38.200001	104.340324	164.6609
38.700001	104.322533	164.1403
39.500000	104.293640	163.3172
40.000000	104.276070	162.8123
40.599998	104.255203	162.2147
41.200001	104.233238	161.6272
41.799999	104.209846	161.0538
42.500000	104.181969	160.3986
43.099998	104.157600	159.8394
43.700001	104.131996	159.2833
44.400002	104.101593	158.6460
45.000000	104.076263	158.1060
45.500000	104.055283	157.6586
46.200001	104.025269	157.0440
46.799999	103.999214	156.5317
47.500000	103.968521	155.9413
48.200001	103.936935	155.3500
48.700001	103.913826	154.9273
49.400002	103.880325	154.3433
50.000000	103.850456	153.8629
50.799999	103.811295	153.2468
51.500000	103.777184	152.6989
52.200001	103.741837	152.1519
53.000000	103.705086	151.5544
53.799999	103.667587	150.9650
54.500000	103.627762	150.4880
55.200001	103.593117	150.0292
56.000000	103.560631	149.4174
57.000000	103.514908	148.7695
58.000000	103.496277	148.2586
59.000000	103.424797	147.4870
60.000000	103.335968	146.9433
60.799999	103.334427	146.3235
61.500000	103.323715	145.5873
62.200001	103.285210	145.0522
63.000000	103.246788	144.6468
64.000000	103.195107	143.9902
65.000000	103.134613	143.3276
66.000000	103.089226	142.6944
67.000000	103.036057	142.0983
68.000000	102.982597	141.5200
69.000000	102.931908	140.9286
70.000000	102.881752	140.3525
71.000000	102.829781	139.7925
72.000000	102.778122	139.2219
73.000000	102.725700	138.6739
74.000000	102.676514	138.1347
75.000000	102.624573	137.5959
76.199997	102.565353	136.9814
77.500000	102.497871	136.3167
78.800003	102.431343	135.6696
80.000000	102.369598	135.0852
81.199997	102.311493	134.5190
82.500000	102.246178	133.8934
83.800003	102.180962	133.3152
85.000000	102.124207	132.7546
86.199997	102.063606	132.2204
87.500000	102.009552	131.6635
88.500000	101.959389	131.1928
90.000000	101.890846	130.5758
91.199997	101.838249	130.0032
92.500000	101.772842	129.4911
93.800003	101.715805	128.9303
95.000000	101.657211	128.4201
96.199997	101.603416	127.9431
97.500000	101.541107	127.4348
98.800003	101.480865	126.9409
100.000000	101.425652	126.4768
101.500000	101.355873	125.9163
103.000000	101.289948	125.3828
104.400002	101.224480	124.8695
106.000000	101.152725	124.3063
107.500000	101.085320	123.8072
109.000000	101.020264	123.2958
110.599998	100.953232	122.7638
112.000000	100.890129	122.3087
113.800003	100.815750	121.7318
115.000000	100.761223	121.3899
117.199997	100.671875	120.7042
118.000000	100.649536	120.5232
120.599998	100.492287	119.9365
122.000000	100.480034	119.2832
124.099998	100.405861	118.7749
125.000000	100.369438	118.5193
126.500000	100.321991	118.1111
128.000000	100.269989	117.6953
131.500000	100.145042	116.7161
132.000000	100.126923	116.5752
134.000000	100.056213	116.0518
136.000000	99.983688	115.5202
138.000000	99.911385	115.0172
140.000000	99.843117	114.5194
143.000000	99.740479	113.7961
145.000000	99.676033	113.3309
147.500000	99.593559	112.7631
150.000000	99.514687	112.1966
152.500000	99.435966	111.6587
155.000000	99.358177	111.1185
157.500000	99.285034	110.6115
160.000000	99.210472	110.0976
162.500000	99.139496	109.5975
165.000000	99.068619	109.1134
167.500000	98.999557	108.6399
170.000000	98.932304	108.1897
172.500000	98.864792	107.7224
175.000000	98.800179	107.2900
177.500000	98.738373	106.8574
180.000000	98.659210	106.4520
182.500000	98.613922	105.9913
185.000000	98.552902	105.5962
187.500000	98.493889	105.2043
190.000000	98.437859	104.8235
192.500000	98.381073	104.4454
195.000000	98.325165	104.0902
197.500000	98.272354	103.7566
200.000000	98.218948	103.4076
203.000000	98.158615	103.0172
206.000000	98.103348	102.6520
209.000000	98.049797	102.2783
212.000000	97.998703	101.8981
214.000000	97.966980	101.6493
218.000000	97.899406	101.1532
220.000000	97.861893	100.9162
224.000000	97.794220	100.4773
227.000000	97.740082	100.1853
230.000000	97.689491	99.9331
233.000000	97.641739	99.7299
236.000000	97.603455	99.6018
240.000000	97.577515	99.1246
243.000000	97.553688	99.4078
247.000000	97.577133	99.2631
250.000000	97.612122	98.9829
254.000000	97.652702	98.3546
258.000000	97.661720	97.5716
262.000000	97.640930	96.7824
265.000000	97.614479	96.2529
269.000000	97.574341	95.6026
272.000000	97.540520	95.1720
276.000000	97.502388	94.6408
280.000000	97.461678	94.1584
285.000000	97.416710	93.5986
290.000000	97.373528	93.0818
295.000000	97.335602	92.5718
300.000000	97.345985	92.0172
304.000000	97.273254	91.7356
307.000000	97.256516	91.4882
311.000000	97.235565	91.1488
315.000000	97.216972	90.8093
320.000000	97.194992	90.4034
325.000000	97.178452	90.0124
330.000000	97.161430	89.6169
335.000000	97.149727	89.2528
340.000000	97.141464	88.8747
345.000000	97.132248	88.4883
350.000000	97.126617	88.1013
355.000000	97.118324	87.7064
360.000000	97.102715	87.2974
365.000000	97.111000	86.9908
370.000000	97.108704	86.6400
375.000000	97.108047	86.3048
382.000000	97.106232	85.8157
387.000000	97.107239	85.5024
395.000000	97.112831	84.9875
400.000000	97.119560	84.6896
406.000000	97.125885	84.3327
412.000000	97.138138	83.9667
418.000000	97.152122	83.6484
425.000000	97.171608	83.2062
431.000000	97.188850	82.8550
437.000000	97.205383	82.4814
444.000000	97.226501	82.0853
450.000000	97.242676	81.7311
455.000000	97.259842	81.4420
462.000000	97.280342	81.0480
468.000000	97.302498	80.7309
475.000000	97.327515	80.3260
482.000000	97.349533	79.9644
487.000000	97.370247	79.6578
494.000000	97.395912	79.2893
500.000000	97.418671	78.9688
508.000000	97.449226	78.5460
515.000000	97.474037	78.2008
522.000000	97.503220	77.8141
530.000000	97.532188	77.4415
538.000000	97.564339	77.0341
545.000000	97.589218	76.7154
552.000000	97.620796	76.3767
560.000000	97.651077	76.0135
570.000000	97.689331	75.5653
580.000000	97.732880	75.1124
590.000000	97.773247	74.6934
600.000000	97.812698	74.2420
608.000000	97.848373	73.9172
615.000000	97.876450	73.6401
622.000000	97.903969	73.3719
630.000000	97.936455	73.0450
640.000000	97.976326	72.6687
650.000000	98.016014	72.2896
660.000000	98.046715	71.8507
670.000000	98.095383	71.5898
680.000000	98.137314	71.2463
690.000000	98.176796	70.9207
700.000000	98.216034	70.6106
710.000000	98.256271	70.3109
720.000000	98.285103	70.0098
730.000000	98.334953	69.7242
740.000000	98.372986	69.4612
750.000000	98.413383	69.2006
762.000000	98.459976	68.9061
775.000000	98.512970	68.6105
788.000000	98.564049	68.3291
800.000000	98.613838	68.0826
812.000000	98.663589	67.8600
825.000000	98.717842	67.6406
838.000000	98.775238	67.4163
850.000000	98.827148	67.2556
862.000000	98.881920	67.0907
875.000000	98.943504	66.9314
885.000000	98.994019	66.8198
900.000000	99.056435	66.7885
912.000000	99.133530	66.5378
925.000000	99.205574	66.4019
938.000000	99.280006	66.2713
950.000000	99.352867	66.1569
962.000000	99.426628	66.0569
975.000000	99.507278	65.9017
988.000000	99.593964	65.7763
1000.000000	99.673973	65.6262
1015.000000	99.776154	65.4250
1030.000000	99.884262	65.2292
1044.000000	99.985199	64.9987
1060.000000	100.103073	64.7248
1075.000000	100.210709	64.4229
1090.000000	100.323181	64.1144
1106.000000	100.439522	63.7438
1120.000000	100.540154	63.3831
1138.000000	100.668762	62.9153
1150.000000	100.751572	62.5545
1172.000000	100.896957	61.8676
1180.000000	100.948441	61.6105
1206.000000	101.109100	60.7534
1220.000000	101.188332	60.2699
1241.000000	101.302383	59.5309
1250.000000	101.348709	59.2152
1265.000000	101.422874	58.6830
1280.000000	101.492401	58.1450
1315.000000	101.640945	56.9333
1320.000000	101.655334	56.8358
1340.000000	101.733727	56.0810
1360.000000	101.802711	55.4296
1380.000000	101.854195	54.8341
1400.000000	101.926384	54.1746
1430.000000	102.011398	53.2948
1450.000000	102.063660	52.7324
1475.000000	102.127884	52.0681
1500.000000	102.187172	51.4138
1525.000000	102.247284	50.8248
1550.000000	102.304031	50.2305
1575.000000	102.361725	49.6711
1600.000000	102.416519	49.1306
1625.000000	102.471298	48.6072
1650.000000	102.524445	48.1174
1675.000000	102.579048	47.6407
1700.000000	102.632889	47.1940
1725.000000	102.688377	46.7662
1750.000000	102.748444	46.3495
1775.000000	102.809158	45.9505
1800.000000	102.872551	45.5441
1825.000000	102.941605	45.1374
1850.000000	103.015068	44.7198
1875.000000	103.085922	44.2686
1900.000000	103.159370	43.8189
1925.000000	103.235397	43.3302
1950.000000	103.310928	42.8172
1975.000000	103.387535	42.2739
2000.000000	103.459969	41.7055
2030.000000	103.547165	40.9639
2060.000000	103.630569	40.1886
2090.000000	103.708878	39.3722
2120.000000	103.779800	38.5149
2140.000000	103.824493	37.9163
2180.000000	103.899529	36.6757
2200.000000	103.932922	36.0370
2240.000000	103.982285	34.7319
2270.000000	104.008385	33.7376
2300.000000	104.022987	32.7297
2330.000000	104.026352	31.7350
2360.000000	104.017654	30.7566
2400.000000	103.985779	29.4983
2430.000000	103.955292	28.5578
2470.000000	103.894234	27.3922
2500.000000	103.836578	26.5731
2540.000000	103.749664	25.5695
2580.000000	103.651398	24.6993
2620.000000	103.539299	23.8949
2650.000000	103.451866	23.3954
2690.000000	103.331017	22.8470
2720.000000	103.240196	22.5186
2760.000000	103.115585	22.2111
2800.000000	102.993927	22.0393
2850.000000	102.851227	21.9913
2900.000000	102.724060	22.1300
2950.000000	102.614174	22.4296
3000.000000	102.526718	22.8242
3040.000000	102.475235	23.2383
3070.000000	102.447281	23.5651
3110.000000	102.423767	24.0099
3150.000000	102.416885	24.4474
3200.000000	102.428505	24.9591
3250.000000	102.453110	25.4105
3300.000000	102.490585	25.8051
3350.000000	102.524773	26.1232
3400.000000	102.567657	26.4410
3450.000000	102.613022	26.7773
3500.000000	102.665703	27.1517
3550.000000	102.730713	27.5442
3600.000000	102.815048	27.9641
3650.000000	102.908653	28.3660
3700.000000	103.026878	28.7452
3750.000000	103.166641	29.0599
3820.000000	103.394714	29.3920
3870.000000	103.582031	29.4742
3950.000000	103.921669	29.3160
4000.000000	104.155983	28.9730
4060.000000	104.455177	28.2712
4120.000000	104.766998	27.2158
4180.000000	105.082977	25.7104
4250.000000	105.443520	23.3295
4310.000000	105.724213	20.7114
4370.000000	105.956940	17.5153
4440.000000	106.134109	13.1134
4500.000000	106.167938	8.8418
4550.000000	106.102760	5.0666
4620.000000	105.836380	-0.2881
4680.000000	105.450012	-4.6038
4750.000000	104.841408	-9.0297
4820.000000	104.098312	-12.5104
4870.000000	103.510452	-14.3556
4940.000000	102.650513	-15.9888
5000.000000	101.895309	-16.5619
5080.000000	100.910385	-16.1855
5150.000000	100.089409	-14.9666
5220.000000	99.310928	-12.9772
5300.000000	98.513321	-9.8932
5380.000000	97.805748	-6.1145
5450.000000	97.275696	-2.3401
5520.000000	96.830368	1.8533
5600.000000	96.453568	7.1085
5700.000000	96.201561	13.7537
5800.000000	96.111465	19.4381
5900.000000	95.886063	25.2104
6000.000000	95.939400	33.4466
6080.000000	96.302406	39.3520
6150.000000	96.734367	43.7499
6220.000000	97.245010	47.5697
6300.000000	97.890419	51.1738
6400.000000	98.799744	54.5204
6500.000000	99.775497	56.5201
6600.000000	100.785332	56.9993
6700.000000	101.758804	55.8824
6800.000000	102.631042	53.2512
6900.000000	103.328400	49.3717
7000.000000	103.811523	44.8578
7100.000000	104.078499	40.2432
7200.000000	104.184753	36.0058
7300.000000	104.188263	32.2305
7400.000000	104.126083	28.9864
7500.000000	104.035072	26.2283
7620.000000	103.935616	23.3528
7750.000000	103.836868	20.4802
7880.000000	103.750305	17.6035
8000.000000	103.658867	14.8414
8120.000000	103.537514	11.9683
8250.000000	103.353638	8.8142
8380.000000	103.119827	5.8041
8500.000000	102.873886	3.1416
8620.000000	102.600365	0.6184
8750.000000	102.267166	-1.8668
8850.000000	101.994812	-3.5885
9000.000000	101.584274	-5.7731
9120.000000	101.273727	-7.2313
9250.000000	100.971527	-8.5942
9380.000000	100.707336	-9.9039
9500.000000	100.493141	-11.1453
9620.000000	100.317612	-12.4382
9750.000000	100.181320	-13.9930
9880.000000	100.098442	-16.0435
10000.000000	100.062454	-18.6618
10150.000000	99.995483	-23.5104
10300.000000	99.709991	-30.4466
10440.000000	98.966187	-38.0416
10600.000000	97.448265	-45.0998
10750.000000	95.671509	-47.4692
10900.000000	93.983246	-45.6780
11060.000000	92.570679	-40.7153
11200.000000	91.705315	-35.3723
11380.000000	91.039589	-28.3604
11500.000000	90.814133	-24.2839
11720.000000	90.701828	-18.3047
11800.000000	90.724777	-16.6364
12060.000000	90.834923	-12.4146
12200.000000	91.077240	-10.6402
12410.000000	91.553261	-9.8394
12500.000000	91.796600	-9.9786
12650.000000	92.226837	-11.3302
12800.000000	92.673920	-14.0505
13150.000000	93.457703	-24.3313
13200.000000	93.544899	-26.1838
13400.000000	93.702423	-34.0292
13600.000000	93.724243	-42.3382
13800.000000	93.632324	-50.5878
14000.000000	93.519157	-58.5371
14300.000000	93.502579	-70.0103
14500.000000	93.694717	-77.7613
14750.000000	94.241890	-88.4337
15000.000000	95.169449	-101.3806
15250.000000	96.309097	-119.0552
15500.000000	96.964653	-140.9039
15750.000000	97.508118	-161.9729
16000.000000	98.254456	174.1519
16250.000000	98.974800	142.6783
16500.000000	98.057388	106.3528
16750.000000	96.042572	76.2646
17000.000000	94.144653	51.3102
17250.000000	92.633255	27.8566
17500.000000	91.530296	3.2711
17750.000000	90.818871	-24.0599
18000.000000	90.397499	-55.8383
18250.000000	90.229736	-93.7573
18500.000000	90.161995	-140.1195
18750.000000	89.854988	163.6296
19000.000000	88.921860	97.2012
19250.000000	87.272339	22.2468
19500.000000	85.068993	-60.7600
19750.000000	82.526001	-153.1892
