* Measurement data measured by REW V5.20
* Source: USB-C to 3.5mm Headphone Jack Adapter, USB-C to 3.5mm Headphone Jack Adapter, 0, volume: 0.138
* Format: 256k Log Swept Sine, 1 sweep at -12.0 dBFS with no timing reference
* Dated: Jul 22, 2022 5:36:55 PM
* REW Settings:
*  C-weighting compensation: Off
*  Target level: 75.0 dB
* Note: 
* Measurement: (pre-op) L
* Smoothing: None
* Frequency Step: 1/48 octave
* Start Frequency: 20.300 Hz
*
* Freq(Hz)	SPL(dB)	Phase(degrees)
20.299999	104.906357	-173.0492
20.600000	104.886543	-173.7228
20.900000	104.861618	-174.3269
21.200001	104.836014	-174.9317
21.400000	104.818962	-175.3391
21.799999	104.784126	-176.1543
22.000000	104.766190	-176.5541
22.400000	104.729935	-177.3204
22.700001	104.704102	-177.8581
23.000000	104.680893	-178.3705
23.299999	104.660675	-178.8719
23.600000	104.642540	-179.3787
24.000000	104.617737	179.9218
24.299999	104.595924	179.3851
24.700001	104.560928	178.6794
25.000000	104.531570	178.1770
25.400000	104.491783	177.5539
25.799999	104.454430	176.9701
26.200001	104.418808	176.3978
26.500000	104.390900	175.9662
26.900000	104.349220	175.3945
27.200001	104.314400	174.9809
27.600000	104.266403	174.4645
28.000000	104.221512	173.9852
28.500000	104.174744	173.4019
29.000000	104.134949	172.7925
29.500000	104.093315	172.1600
30.000000	104.044609	171.5515
30.400000	104.002205	171.1042
30.700001	103.970352	170.7896
31.100000	103.929367	170.3825
31.500000	103.889984	169.9706
32.000000	103.840416	169.4371
32.500000	103.787880	168.8981
33.000000	103.732574	168.3843
33.500000	103.677132	167.9127
34.000000	103.624008	167.4753
34.500000	103.573212	167.0521
35.000000	103.522751	166.6297
35.500000	103.470978	166.2096
36.000000	103.418045	165.7997
36.500000	103.365128	165.4022
37.000000	103.312691	165.0135
37.500000	103.260391	164.6328
38.200001	103.187637	164.1204
38.700001	103.136795	163.7693
39.500000	103.056038	163.2272
40.000000	103.004471	162.9077
40.599998	102.942528	162.5485
41.200001	102.881836	162.1965
41.799999	102.820869	161.8358
42.500000	102.748474	161.4244
43.099998	102.689064	161.0970
43.700001	102.633095	160.7765
44.400002	102.565422	160.4046
45.000000	102.503265	160.1174
45.500000	102.452408	159.9039
46.200001	102.385849	159.6034
46.799999	102.328888	159.3284
47.500000	102.259377	159.0313
48.200001	102.192482	158.7737
48.700001	102.147400	158.5830
49.400002	102.083084	158.2938
50.000000	102.026489	158.0620
50.799999	101.955719	157.8063
51.500000	101.898140	157.5981
52.200001	101.838127	157.3651
53.000000	101.761642	157.0735
53.799999	101.685951	156.8370
54.500000	101.633759	156.6691
55.200001	101.582130	156.4489
56.000000	101.501816	156.2104
57.000000	101.419403	155.9855
58.000000	101.347610	155.6052
59.000000	101.258484	155.7688
60.000000	101.230682	155.8530
60.799999	101.150719	155.3252
61.500000	101.042480	154.9952
62.200001	100.975807	154.8872
63.000000	100.935944	154.7395
64.000000	100.859634	154.6340
65.000000	100.774185	154.5300
66.000000	100.689285	154.3295
67.000000	100.623550	154.2033
68.000000	100.550545	154.0905
69.000000	100.471146	154.0048
70.000000	100.399445	153.8750
71.000000	100.332283	153.7911
72.000000	100.265137	153.7156
73.000000	100.193283	153.6405
74.000000	100.124985	153.5741
75.000000	100.056465	153.5281
76.199997	99.974220	153.4622
77.500000	99.885834	153.4126
78.800003	99.807846	153.4029
80.000000	99.736221	153.4838
81.199997	99.681808	153.4303
82.500000	99.592918	153.3285
83.800003	99.514969	153.3074
85.000000	99.444168	153.2463
86.199997	99.380959	153.2658
87.500000	99.304008	153.2753
88.500000	99.244247	153.2531
90.000000	99.161423	153.2589
91.199997	99.099976	153.3079
92.500000	99.022217	153.3470
93.800003	98.959129	153.4009
95.000000	98.898537	153.4271
96.199997	98.835373	153.4006
97.500000	98.766769	153.4994
98.800003	98.707596	153.5284
100.000000	98.644028	153.5991
101.500000	98.576721	153.6367
103.000000	98.513245	153.7906
104.400002	98.442345	153.8119
106.000000	98.364281	153.9261
107.500000	98.297791	154.0070
109.000000	98.233803	154.1077
110.599998	98.167252	154.1996
112.000000	98.106979	154.3063
113.800003	98.027756	154.4734
115.000000	97.979149	154.4913
117.199997	97.896362	154.7225
118.000000	97.844261	154.7936
120.599998	97.769844	154.4860
122.000000	97.717804	155.2397
124.099998	97.621521	155.3182
125.000000	97.595345	155.3885
126.500000	97.537895	155.5631
128.000000	97.482628	155.6633
131.500000	97.361000	156.0140
132.000000	97.343361	156.0635
134.000000	97.271034	156.2746
136.000000	97.204842	156.4697
138.000000	97.132935	156.6953
140.000000	97.064316	156.9104
143.000000	96.957634	157.2239
145.000000	96.886269	157.4626
147.500000	96.797691	157.8150
150.000000	96.703781	158.1498
152.500000	96.611343	158.5986
155.000000	96.519012	159.0962
157.500000	96.426682	159.7041
160.000000	96.346298	160.4727
162.500000	96.288269	161.4177
165.000000	96.280167	162.3679
167.500000	96.312653	163.2114
170.000000	96.368797	163.8143
172.500000	96.439529	164.1867
175.000000	96.507774	164.2878
177.500000	96.539398	164.1626
180.000000	96.495293	163.9675
182.500000	96.529251	163.9206
185.000000	96.509087	163.9438
187.500000	96.487900	163.8766
190.000000	96.461945	163.7335
192.500000	96.421692	163.6792
195.000000	96.387825	163.7640
197.500000	96.331322	163.7593
200.000000	96.298477	163.8115
203.000000	96.235474	163.9734
206.000000	96.177269	164.1053
209.000000	96.121300	164.2979
212.000000	96.066597	164.4959
214.000000	96.034546	164.6450
218.000000	95.971123	164.9577
220.000000	95.940758	165.1415
224.000000	95.883583	165.4713
227.000000	95.840714	165.7283
230.000000	95.802025	165.9833
233.000000	95.763184	166.2392
236.000000	95.730179	166.4763
240.000000	95.619415	166.6492
243.000000	95.640182	167.1031
247.000000	95.597527	167.4339
250.000000	95.562492	167.6959
254.000000	95.521080	168.0430
258.000000	95.478119	168.4047
262.000000	95.440285	168.7485
265.000000	95.409088	169.0463
269.000000	95.372963	169.4099
272.000000	95.343239	169.7101
276.000000	95.311920	170.0895
280.000000	95.282677	170.4822
285.000000	95.251091	170.9857
290.000000	95.228416	171.4601
295.000000	95.208443	171.9338
300.000000	95.151283	172.3658
304.000000	95.179291	172.5995
307.000000	95.168533	172.8012
311.000000	95.150429	173.0446
315.000000	95.130104	173.3190
320.000000	95.104897	173.6296
325.000000	95.074043	174.0058
330.000000	95.052879	174.3486
335.000000	95.027954	174.7162
340.000000	95.001755	175.0737
345.000000	94.982162	175.4128
350.000000	94.957527	175.7826
355.000000	94.937508	176.1338
360.000000	94.915215	176.4467
365.000000	94.899147	176.8689
370.000000	94.881958	177.2281
375.000000	94.860878	177.5710
382.000000	94.838264	178.0731
387.000000	94.824417	178.4265
395.000000	94.800018	178.9833
400.000000	94.784866	179.3081
406.000000	94.771385	179.7281
412.000000	94.754158	-179.8609
418.000000	94.740295	-179.4460
425.000000	94.725914	-178.9831
431.000000	94.711189	-178.5672
437.000000	94.698349	-178.1687
444.000000	94.685738	-177.7054
450.000000	94.676079	-177.3341
455.000000	94.668495	-176.9640
462.000000	94.659569	-176.5148
468.000000	94.649223	-176.1084
475.000000	94.641922	-175.6619
482.000000	94.634888	-175.1771
487.000000	94.629082	-174.8773
494.000000	94.622734	-174.4321
500.000000	94.616287	-174.0216
508.000000	94.612373	-173.5118
515.000000	94.607437	-173.0699
522.000000	94.603760	-172.6163
530.000000	94.600380	-172.1106
538.000000	94.599640	-171.6289
545.000000	94.601662	-171.1683
552.000000	94.595627	-170.7264
560.000000	94.596428	-170.2295
570.000000	94.599205	-169.5916
580.000000	94.602646	-168.9713
590.000000	94.606888	-168.3228
600.000000	94.619629	-167.6575
608.000000	94.618530	-167.1949
615.000000	94.622009	-166.7561
622.000000	94.631180	-166.3096
630.000000	94.637390	-165.8240
640.000000	94.648521	-165.1891
650.000000	94.659683	-164.5703
660.000000	94.647163	-164.0199
670.000000	94.687019	-163.3193
680.000000	94.706688	-162.6823
690.000000	94.725754	-162.0443
700.000000	94.744583	-161.4089
710.000000	94.764061	-160.7961
720.000000	94.786484	-160.1125
730.000000	94.814728	-159.5214
740.000000	94.838593	-158.8905
750.000000	94.866074	-158.2527
762.000000	94.902824	-157.4886
775.000000	94.945770	-156.6437
788.000000	94.992813	-155.8097
800.000000	95.034805	-155.0478
812.000000	95.081673	-154.3000
825.000000	95.138458	-153.4556
838.000000	95.199799	-152.6289
850.000000	95.256004	-151.8568
862.000000	95.316467	-151.1032
875.000000	95.389290	-150.2786
885.000000	95.447205	-149.6544
900.000000	95.536865	-148.5765
912.000000	95.612625	-147.9688
925.000000	95.698547	-147.2001
938.000000	95.788490	-146.4157
950.000000	95.878922	-145.7084
962.000000	95.970749	-145.0477
975.000000	96.071976	-144.3057
988.000000	96.178787	-143.5912
1000.000000	96.285027	-142.9660
1015.000000	96.419838	-142.1830
1030.000000	96.556442	-141.4511
1044.000000	96.694756	-140.8142
1060.000000	96.855667	-140.1314
1075.000000	97.007057	-139.5510
1090.000000	97.162811	-139.0084
1106.000000	97.336578	-138.5218
1120.000000	97.483276	-138.1464
1138.000000	97.675407	-137.7379
1150.000000	97.797737	-137.5141
1172.000000	98.018311	-137.1993
1180.000000	98.095688	-137.0922
1206.000000	98.334419	-136.8061
1220.000000	98.460396	-136.6686
1241.000000	98.640930	-136.4855
1250.000000	98.717041	-136.4156
1265.000000	98.839760	-136.3091
1280.000000	98.960136	-136.1962
1315.000000	99.236237	-135.9670
1320.000000	99.271461	-135.9172
1340.000000	99.429321	-135.8334
1360.000000	99.578575	-135.7100
1380.000000	99.729767	-135.5660
1400.000000	99.872177	-135.4857
1430.000000	100.095978	-135.3163
1450.000000	100.245613	-135.1988
1475.000000	100.433838	-135.0865
1500.000000	100.623810	-134.9807
1525.000000	100.821297	-134.8932
1550.000000	101.018738	-134.8448
1575.000000	101.221718	-134.8326
1600.000000	101.427856	-134.8492
1625.000000	101.640610	-134.9217
1650.000000	101.862419	-135.0643
1675.000000	102.090736	-135.2770
1700.000000	102.328751	-135.6126
1725.000000	102.578224	-136.1015
1750.000000	102.839539	-136.8301
1775.000000	103.105408	-137.9402
1800.000000	103.346924	-139.5840
1825.000000	103.508911	-141.9779
1850.000000	103.457733	-144.8255
1875.000000	103.085693	-146.4929
1900.000000	102.749947	-145.1569
1925.000000	102.753662	-143.0185
1950.000000	102.935074	-141.6846
1975.000000	103.158562	-141.1471
2000.000000	103.377258	-141.1121
2030.000000	103.625809	-141.4063
2060.000000	103.847595	-141.9604
2090.000000	104.046669	-142.6973
2120.000000	104.224281	-143.5337
2140.000000	104.330933	-144.1476
2180.000000	104.517036	-145.4365
2200.000000	104.597885	-146.1113
2240.000000	104.729607	-147.4779
2270.000000	104.804817	-148.4828
2300.000000	104.865479	-149.4201
2330.000000	104.919319	-150.2728
2360.000000	104.981750	-151.1453
2400.000000	105.043800	-152.4057
2430.000000	105.080429	-153.3228
2470.000000	105.110764	-154.6219
2500.000000	105.110397	-155.5845
2540.000000	105.093002	-156.7551
2580.000000	105.064125	-157.8388
2620.000000	105.033646	-158.8449
2650.000000	105.010094	-159.5944
2690.000000	104.989090	-160.6679
2720.000000	104.977997	-161.6396
2760.000000	104.948647	-163.3788
2800.000000	104.825691	-165.9151
2850.000000	104.257744	-169.7927
2900.000000	102.921265	-167.7092
2950.000000	102.950363	-160.7629
3000.000000	103.196152	-158.3735
3040.000000	103.296356	-157.6212
3070.000000	103.351494	-157.1816
3110.000000	103.401978	-156.6499
3150.000000	103.440689	-156.1015
3200.000000	103.503113	-155.2609
3250.000000	103.628517	-154.6069
3300.000000	103.732376	-154.2651
3350.000000	103.837036	-153.8293
3400.000000	103.974022	-153.4027
3450.000000	104.154327	-153.0870
3500.000000	104.384117	-153.0547
3550.000000	104.664940	-153.4185
3600.000000	105.002953	-154.5297
3650.000000	105.328369	-156.9320
3700.000000	105.380920	-160.5970
3750.000000	105.361809	-161.0165
3820.000000	106.290634	-166.8444
3870.000000	106.695427	-177.2594
3950.000000	104.220161	154.8997
4000.000000	99.117714	158.2310
4060.000000	96.830734	-170.1766
4120.000000	97.930679	-154.0105
4180.000000	98.977234	-148.6023
4250.000000	99.540283	-144.9896
4310.000000	100.061584	-141.9743
4370.000000	100.549118	-140.9085
4440.000000	100.800552	-139.2326
4500.000000	101.232529	-137.7364
4550.000000	101.599304	-137.4336
4620.000000	102.049904	-138.0253
4680.000000	102.360435	-139.5367
4750.000000	102.402786	-142.9895
4820.000000	101.806801	-142.1968
4870.000000	102.050110	-139.6613
4940.000000	102.564545	-140.1952
5000.000000	102.828499	-142.3185
5080.000000	102.906616	-146.2968
5150.000000	102.673111	-150.1595
5220.000000	102.114235	-153.4517
5300.000000	101.137909	-154.8593
5380.000000	100.137535	-152.0221
5450.000000	99.677757	-147.0908
5520.000000	99.624466	-142.5741
5600.000000	99.815376	-138.9620
5700.000000	100.062767	-136.9960
5800.000000	100.008896	-135.2774
5900.000000	100.267685	-131.5671
6000.000000	100.812790	-130.5853
6080.000000	101.155060	-131.3020
6150.000000	101.303574	-132.3285
6220.000000	101.394569	-133.2097
6300.000000	101.373077	-134.4265
6400.000000	101.129822	-133.7817
6500.000000	101.472351	-132.4262
6600.000000	101.547874	-133.1828
6700.000000	101.582901	-132.6375
6800.000000	101.640968	-130.8224
6900.000000	102.045326	-127.4735
7000.000000	102.898010	-125.0100
7100.000000	104.063034	-124.6008
7200.000000	105.344597	-126.9527
7300.000000	106.712257	-131.5064
7400.000000	108.207275	-140.2706
7500.000000	109.178009	-156.3286
7620.000000	107.527962	-175.1282
7750.000000	106.647964	-170.2277
7880.000000	107.890030	-179.2567
8000.000000	107.541428	166.5037
8120.000000	106.807579	156.9371
8250.000000	105.402603	146.0823
8380.000000	103.849625	140.8782
8500.000000	102.474060	137.8666
8620.000000	101.139641	136.4664
8750.000000	99.754433	136.9472
8850.000000	98.801689	138.4407
9000.000000	97.564323	142.3027
9120.000000	96.835915	146.2933
9250.000000	96.248871	150.6202
9380.000000	95.818214	154.9687
9500.000000	95.546509	158.6760
9620.000000	95.310860	162.2385
9750.000000	95.156128	166.3069
9880.000000	95.131554	170.1592
10000.000000	95.195023	173.2596
10150.000000	95.304474	176.4556
10300.000000	95.448631	179.4518
10440.000000	95.657593	-177.7498
10600.000000	96.070061	-175.3730
10750.000000	96.485313	-174.4860
10900.000000	96.832420	-174.3355
11060.000000	97.156181	-174.3219
11200.000000	97.504669	-174.4793
11380.000000	98.084709	-175.8789
11500.000000	98.462601	-178.4104
11720.000000	98.522629	175.6441
11800.000000	98.457207	174.9251
12060.000000	98.819427	172.1479
12200.000000	99.029388	170.1033
12410.000000	99.657516	167.0880
12500.000000	100.035339	165.1447
12650.000000	100.770287	160.7437
12800.000000	101.590630	154.7422
13150.000000	103.780655	132.9487
13200.000000	104.083359	128.5137
13400.000000	104.908325	107.1726
13600.000000	104.659943	83.4156
13800.000000	103.595505	63.2697
14000.000000	102.435875	47.3372
14300.000000	101.058426	28.0639
14500.000000	100.497849	16.8956
14750.000000	100.325645	3.7778
15000.000000	100.838699	-11.0155
15250.000000	101.880722	-30.4182
15500.000000	102.922569	-57.4062
15750.000000	102.971512	-91.1540
16000.000000	101.610703	-124.5258
16250.000000	99.548172	-152.9379
16500.000000	97.358490	-177.6849
16750.000000	95.133255	159.8926
17000.000000	93.071136	139.5635
17250.000000	91.334427	119.3933
17500.000000	89.937653	98.0699
17750.000000	88.862701	73.9733
18000.000000	87.972290	44.3500
18250.000000	87.072266	8.2766
18500.000000	85.716454	-38.2295
18750.000000	82.806519	-98.5091
19000.000000	75.512192	-179.2524
19250.000000	67.049034	-3.8362
19500.000000	74.574837	-112.0322
19750.000000	76.262268	160.4513
