* Measurement data measured by REW V5.20
* Source: USB-C to 3.5mm Headphone Jack Adapter, USB-C to 3.5mm Headphone Jack Adapter, 0, volume: 0.138
* Format: 256k Log Swept Sine, 1 sweep at -12.0 dBFS with no timing reference
* Dated: Jul 15, 2022 5:07:57 PM
* REW Settings:
*  C-weighting compensation: Off
*  Target level: 75.0 dB
* Note: 
* Measurement: Gold L
* Smoothing: None
* Frequency Step: 1/48 octave
* Start Frequency: 20.300 Hz
*
* Freq(Hz)	SPL(dB)	Phase(degrees)
20.299999	109.432724	-150.6108
20.600000	109.456207	-151.2991
20.900000	109.470261	-151.9144
21.200001	109.481117	-152.5176
21.400000	109.488121	-152.9157
21.799999	109.503456	-153.7058
22.000000	109.512100	-154.0980
22.400000	109.530899	-154.8739
22.700001	109.545570	-155.4446
23.000000	109.559952	-156.0036
23.299999	109.573349	-156.5506
23.600000	109.585106	-157.0868
24.000000	109.597351	-157.7856
24.299999	109.603828	-158.2958
24.700001	109.610016	-158.9525
25.000000	109.614487	-159.4260
25.400000	109.622665	-160.0376
25.799999	109.634529	-160.6439
26.200001	109.648010	-161.2615
26.500000	109.656593	-161.7334
26.900000	109.663078	-162.3588
27.200001	109.663712	-162.8105
27.600000	109.661201	-163.3742
28.000000	109.658722	-163.8967
28.500000	109.659958	-164.5269
29.000000	109.664207	-165.1750
29.500000	109.666046	-165.8425
30.000000	109.663284	-166.4934
30.400000	109.659653	-166.9866
30.700001	109.657318	-167.3429
31.100000	109.654945	-167.8097
31.500000	109.652466	-168.2751
32.000000	109.647705	-168.8524
32.500000	109.641655	-169.4141
33.000000	109.636421	-169.9599
33.500000	109.632095	-170.4997
34.000000	109.626480	-171.0364
34.500000	109.618065	-171.5598
35.000000	109.607803	-172.0623
35.500000	109.597244	-172.5489
36.000000	109.586807	-173.0274
36.500000	109.576324	-173.4962
37.000000	109.566597	-173.9507
37.500000	109.558510	-174.3956
38.200001	109.547394	-175.0246
38.700001	109.535873	-175.4775
39.500000	109.510513	-176.1680
40.000000	109.494659	-176.5716
40.599998	109.478561	-177.0489
41.200001	109.463646	-177.5318
41.799999	109.447456	-178.0103
42.500000	109.427086	-178.5471
43.099998	109.409027	-178.9916
43.700001	109.390083	-179.4275
44.400002	109.366608	-179.9267
45.000000	109.345421	179.6544
45.500000	109.327370	179.3163
46.200001	109.303452	178.8643
46.799999	109.285751	178.4845
47.500000	109.265800	178.0270
48.200001	109.242226	177.5635
48.700001	109.223785	177.2455
49.400002	109.199844	176.8200
50.000000	109.181610	176.4578
50.799999	109.155228	175.9711
51.500000	109.126511	175.5658
52.200001	109.096092	175.1964
53.000000	109.066132	174.7760
53.799999	109.036201	174.3163
54.500000	109.005577	173.9332
55.200001	108.978012	173.5924
56.000000	108.951630	173.1960
57.000000	108.915329	172.7278
58.000000	108.879799	172.2888
59.000000	108.818863	171.8492
60.000000	108.767197	171.5489
60.799999	108.754066	171.1495
61.500000	108.730858	170.7025
62.200001	108.695770	170.3641
63.000000	108.663406	170.0793
64.000000	108.625305	169.6604
65.000000	108.580688	169.2388
66.000000	108.538895	168.8641
67.000000	108.497902	168.5184
68.000000	108.454491	168.1479
69.000000	108.409477	167.7950
70.000000	108.369423	167.4556
71.000000	108.326279	167.1126
72.000000	108.281219	166.7902
73.000000	108.238205	166.4785
74.000000	108.197060	166.1621
75.000000	108.154366	165.8423
76.199997	108.100029	165.4910
77.500000	108.042046	165.1414
78.800003	107.985573	164.7771
80.000000	107.937378	164.4816
81.199997	107.886940	164.1595
82.500000	107.823875	163.8395
83.800003	107.768494	163.5161
85.000000	107.716782	163.2393
86.199997	107.664505	162.9725
87.500000	107.606323	162.6882
88.500000	107.562668	162.4773
90.000000	107.496460	162.1670
91.199997	107.443428	161.9260
92.500000	107.388680	161.6817
93.800003	107.335594	161.4398
95.000000	107.281319	161.2209
96.199997	107.228394	161.0130
97.500000	107.169830	160.7750
98.800003	107.113647	160.5736
100.000000	107.062492	160.3850
101.500000	106.996979	160.1794
103.000000	106.933167	159.9494
104.400002	106.871048	159.7631
106.000000	106.802864	159.5450
107.500000	106.734344	159.3796
109.000000	106.670044	159.1664
110.599998	106.600464	158.9940
112.000000	106.537857	158.8342
113.800003	106.455833	158.6375
115.000000	106.399811	158.5419
117.199997	106.301544	158.2998
118.000000	106.274101	158.2457
120.599998	106.131737	158.2083
122.000000	106.069656	157.8730
124.099998	105.967461	157.7673
125.000000	105.916878	157.7245
126.500000	105.841644	157.6370
128.000000	105.754921	157.6246
131.500000	105.545105	157.6124
132.000000	105.513000	157.6485
134.000000	105.382347	157.8569
136.000000	105.248955	158.1792
138.000000	105.132935	158.7583
140.000000	105.033928	159.5138
143.000000	104.982468	160.8044
145.000000	104.990646	161.4828
147.500000	105.054825	162.0951
150.000000	105.111176	162.3063
152.500000	105.161903	162.4046
155.000000	105.206192	162.2768
157.500000	105.236549	162.0152
160.000000	105.251083	161.6346
162.500000	105.240852	161.1559
165.000000	105.206444	160.6883
167.500000	105.150040	160.2954
170.000000	105.083038	159.9604
172.500000	105.009010	159.6863
175.000000	104.935036	159.5023
177.500000	104.858368	159.3618
180.000000	104.780136	159.2815
182.500000	104.706741	159.1854
185.000000	104.633568	159.1611
187.500000	104.561295	159.1550
190.000000	104.488678	159.1543
192.500000	104.420746	159.1715
195.000000	104.355179	159.2146
197.500000	104.287514	159.2769
200.000000	104.224335	159.3332
203.000000	104.147438	159.4290
206.000000	104.074112	159.5357
209.000000	104.001007	159.6473
212.000000	103.931274	159.7727
214.000000	103.885864	159.8596
218.000000	103.796387	160.0461
220.000000	103.751724	160.1447
224.000000	103.665100	160.3470
227.000000	103.601837	160.5088
230.000000	103.539490	160.6826
233.000000	103.478638	160.8650
236.000000	103.419159	161.0443
240.000000	103.329071	161.1487
243.000000	103.283249	161.5079
247.000000	103.206558	161.8105
250.000000	103.151497	162.0355
254.000000	103.085938	162.3699
258.000000	103.021240	162.7080
262.000000	102.970367	163.0578
265.000000	102.934738	163.2705
269.000000	102.890045	163.5320
272.000000	102.852158	163.7141
276.000000	102.797127	163.9291
280.000000	102.742386	164.1690
285.000000	102.671547	164.4813
290.000000	102.603645	164.8174
295.000000	102.537254	165.1469
300.000000	102.480423	165.4502
304.000000	102.419548	165.8044
307.000000	102.383759	166.0353
311.000000	102.336021	166.3290
315.000000	102.289108	166.6294
320.000000	102.233612	167.0248
325.000000	102.179657	167.4111
330.000000	102.128510	167.7858
335.000000	102.080009	168.1646
340.000000	102.030746	168.5511
345.000000	101.981201	168.9340
350.000000	101.934189	169.3091
355.000000	101.888458	169.6985
360.000000	101.840912	170.0890
365.000000	101.802200	170.4734
370.000000	101.760155	170.8741
375.000000	101.720230	171.2674
382.000000	101.665451	171.8113
387.000000	101.628723	172.2065
395.000000	101.571129	172.8403
400.000000	101.538383	173.2358
406.000000	101.498001	173.6902
412.000000	101.458984	174.1920
418.000000	101.424858	174.6611
425.000000	101.381783	175.2007
431.000000	101.348152	175.6857
437.000000	101.316879	176.1489
444.000000	101.278214	176.7097
450.000000	101.250443	177.1751
455.000000	101.225403	177.5612
462.000000	101.195045	178.1113
468.000000	101.168350	178.5869
475.000000	101.140213	179.1290
482.000000	101.111176	179.6787
487.000000	101.093163	-179.9339
494.000000	101.066818	-179.3844
500.000000	101.046700	-178.9147
508.000000	101.021553	-178.3010
515.000000	101.000183	-177.7510
522.000000	100.980835	-177.2167
530.000000	100.959671	-176.6028
538.000000	100.938721	-175.9737
545.000000	100.923218	-175.4414
552.000000	100.908714	-174.8983
560.000000	100.891815	-174.2824
570.000000	100.874794	-173.5154
580.000000	100.859116	-172.7520
590.000000	100.845291	-171.9670
600.000000	100.834030	-171.1911
608.000000	100.826782	-170.5965
615.000000	100.819702	-170.0566
622.000000	100.816223	-169.5286
630.000000	100.812546	-168.9317
640.000000	100.809006	-168.1553
650.000000	100.808258	-167.3849
660.000000	100.818161	-166.6431
670.000000	100.812012	-165.8627
680.000000	100.816177	-165.0954
690.000000	100.821770	-164.3350
700.000000	100.829178	-163.5721
710.000000	100.839226	-162.8088
720.000000	100.852509	-162.0382
730.000000	100.865784	-161.2684
740.000000	100.882378	-160.5168
750.000000	100.898285	-159.7564
762.000000	100.923264	-158.8342
775.000000	100.951706	-157.8357
788.000000	100.983017	-156.8355
800.000000	101.015396	-155.9203
812.000000	101.048111	-154.9970
825.000000	101.087173	-153.9740
838.000000	101.128189	-152.9462
850.000000	101.165230	-151.9738
862.000000	101.203468	-150.9358
875.000000	101.247063	-149.6874
885.000000	101.297592	-148.5311
900.000000	101.498886	-146.7530
912.000000	101.695557	-146.1653
925.000000	101.813499	-145.9395
938.000000	101.876785	-145.4646
950.000000	101.926262	-144.8367
962.000000	101.970551	-144.0495
975.000000	102.036293	-142.8484
988.000000	102.213394	-141.7232
1000.000000	102.354218	-141.2740
1015.000000	102.483589	-140.6609
1030.000000	102.607880	-139.9521
1044.000000	102.727180	-139.2992
1060.000000	102.869614	-138.5527
1075.000000	103.005035	-137.8715
1090.000000	103.145126	-137.2301
1106.000000	103.294182	-136.5850
1120.000000	103.428268	-136.0593
1138.000000	103.600006	-135.4206
1150.000000	103.715309	-135.0251
1172.000000	103.924042	-134.3605
1180.000000	104.000526	-134.1319
1206.000000	104.246391	-133.4454
1220.000000	104.377701	-133.1071
1241.000000	104.572495	-132.6413
1250.000000	104.656479	-132.4501
1265.000000	104.792480	-132.1477
1280.000000	104.929733	-131.8690
1315.000000	105.244751	-131.2734
1320.000000	105.288681	-131.1984
1340.000000	105.468140	-130.8876
1360.000000	105.646667	-130.5985
1380.000000	105.824112	-130.3382
1400.000000	106.003143	-130.0901
1430.000000	106.273674	-129.7575
1450.000000	106.454773	-129.5747
1475.000000	106.683807	-129.3644
1500.000000	106.915520	-129.2069
1525.000000	107.151016	-129.0792
1550.000000	107.388695	-129.0083
1575.000000	107.632668	-128.9940
1600.000000	107.878059	-129.0376
1625.000000	108.127701	-129.1535
1650.000000	108.379990	-129.3425
1675.000000	108.636063	-129.6186
1700.000000	108.894188	-129.9713
1725.000000	109.153702	-130.4303
1750.000000	109.412354	-130.9811
1775.000000	109.671722	-131.6483
1800.000000	109.928513	-132.4366
1825.000000	110.181725	-133.3381
1850.000000	110.429230	-134.3705
1875.000000	110.667931	-135.5285
1900.000000	110.896484	-136.8134
1925.000000	111.113449	-138.2337
1950.000000	111.313469	-139.7755
1975.000000	111.496246	-141.4345
2000.000000	111.657707	-143.1936
2030.000000	111.819946	-145.4326
2060.000000	111.945190	-147.7741
2090.000000	112.030640	-150.1731
2120.000000	112.074562	-152.5978
2140.000000	112.081970	-154.2099
2180.000000	112.041275	-157.3539
2200.000000	111.995949	-158.8738
2240.000000	111.858841	-161.7383
2270.000000	111.721062	-163.7145
2300.000000	111.557640	-165.5237
2330.000000	111.374344	-167.1452
2360.000000	111.174294	-168.5847
2400.000000	110.890358	-170.2078
2430.000000	110.668320	-171.2179
2470.000000	110.368736	-172.2971
2500.000000	110.142166	-172.9166
2540.000000	109.844925	-173.5202
2580.000000	109.554756	-173.8787
2620.000000	109.275375	-174.0265
2650.000000	109.073311	-174.0210
2690.000000	108.817055	-173.8642
2720.000000	108.633789	-173.6472
2760.000000	108.403923	-173.2464
2800.000000	108.188637	-172.7370
2850.000000	107.942139	-171.9660
2900.000000	107.718781	-171.0721
2950.000000	107.519844	-170.0849
3000.000000	107.343781	-169.0170
3040.000000	107.217888	-168.1255
3070.000000	107.133553	-167.4287
3110.000000	107.030441	-166.4911
3150.000000	106.938370	-165.5279
3200.000000	106.839836	-164.3046
3250.000000	106.758369	-163.0530
3300.000000	106.692039	-161.7698
3350.000000	106.645790	-160.4359
3400.000000	106.626167	-159.0630
3450.000000	106.638977	-157.7201
3500.000000	106.683182	-156.5151
3550.000000	106.739449	-155.4975
3600.000000	106.797165	-154.6195
3650.000000	106.850143	-153.8106
3700.000000	106.907158	-153.0126
3750.000000	106.971764	-152.2538
3820.000000	107.079941	-151.2875
3870.000000	107.166794	-150.7050
3950.000000	107.312752	-149.9584
4000.000000	107.406097	-149.6011
4060.000000	107.520111	-149.2763
4120.000000	107.634697	-149.0586
4180.000000	107.748558	-148.9582
4250.000000	107.877892	-148.9952
4310.000000	107.990990	-149.1544
4370.000000	108.094803	-149.4631
4440.000000	108.205292	-149.9895
4500.000000	108.287369	-150.5830
4550.000000	108.343048	-151.1725
4620.000000	108.400902	-152.1384
4680.000000	108.424797	-153.0802
4750.000000	108.419479	-154.2795
4820.000000	108.375969	-155.5517
4870.000000	108.319038	-156.4649
4940.000000	108.199112	-157.7139
5000.000000	108.062988	-158.7157
5080.000000	107.841461	-159.8773
5150.000000	107.611862	-160.7234
5220.000000	107.354538	-161.4454
5300.000000	106.995567	-162.2523
5380.000000	106.408493	-162.8190
5450.000000	105.612366	-159.4731
5520.000000	105.913193	-153.6438
5600.000000	106.253197	-153.5273
5700.000000	106.310127	-153.8925
5800.000000	106.228188	-153.8273
5900.000000	106.129684	-153.3465
6000.000000	106.049881	-152.6082
6080.000000	106.009407	-151.9218
6150.000000	105.996185	-151.2777
6220.000000	105.999893	-150.6437
6300.000000	106.027153	-149.9394
6400.000000	106.090004	-149.1516
6500.000000	106.179382	-148.4349
6600.000000	106.296410	-147.8227
6700.000000	106.439178	-147.2595
6800.000000	106.612915	-146.7715
6900.000000	106.825890	-146.3515
7000.000000	107.085999	-146.0010
7100.000000	107.409065	-145.7601
7200.000000	107.808624	-145.7287
7300.000000	108.296219	-146.0938
7400.000000	108.874557	-146.9910
7500.000000	109.555229	-148.6465
7620.000000	110.509491	-152.1766
7750.000000	111.656281	-158.9517
7880.000000	112.691727	-170.2000
8000.000000	113.112251	175.2442
8120.000000	112.606812	159.3966
8250.000000	111.149544	145.3871
8380.000000	109.311508	136.3704
8500.000000	107.614044	131.6392
8620.000000	106.037979	129.2730
8750.000000	104.510254	128.3964
8850.000000	103.428368	128.4704
9000.000000	101.942047	129.7141
9120.000000	100.881012	131.4667
9250.000000	99.866013	133.8879
9380.000000	98.969238	136.6341
9500.000000	98.228363	139.3160
9620.000000	97.570274	142.2693
9750.000000	96.952377	145.6335
9880.000000	96.431717	148.9759
10000.000000	96.025597	152.0661
10150.000000	95.628792	155.7813
10300.000000	95.313881	159.2802
10440.000000	95.109406	162.3677
10600.000000	94.939705	165.5734
10750.000000	94.871674	168.4108
10900.000000	94.881676	170.9369
11060.000000	94.987549	173.2756
11200.000000	95.171898	174.9493
11380.000000	95.550125	176.5440
11500.000000	95.904343	177.1140
11720.000000	96.775665	176.5625
11800.000000	97.185257	175.7209
12060.000000	98.771805	168.9743
12200.000000	99.720734	161.7440
12410.000000	100.792854	144.1171
12500.000000	100.872032	134.4649
12650.000000	100.283051	118.1014
12800.000000	99.003342	104.4206
13150.000000	95.451614	85.7894
13200.000000	94.990982	84.2004
13400.000000	93.372849	79.2755
13600.000000	92.154083	75.5884
13800.000000	91.241638	70.9962
14000.000000	90.296768	66.7098
14300.000000	89.392754	63.2385
14500.000000	89.403183	61.1852
14750.000000	90.275284	56.3637
15000.000000	91.717926	46.2822
15250.000000	93.686668	28.9184
15500.000000	95.602692	-0.9517
15750.000000	95.130142	-42.4644
16000.000000	92.060524	-73.7224
16250.000000	89.002762	-91.6102
16500.000000	86.781525	-103.5863
16750.000000	85.459419	-113.6580
17000.000000	84.984833	-124.8574
17250.000000	85.318863	-139.8867
17500.000000	86.146240	-161.9644
17750.000000	86.951591	167.3953
18000.000000	87.021515	129.1940
18250.000000	86.381607	86.3491
18500.000000	84.623764	41.0169
18750.000000	82.392632	-2.8714
19000.000000	80.297775	-47.6258
19250.000000	78.476410	-97.9029
19500.000000	76.781082	-157.0005
19750.000000	74.971390	131.7896
