* Measurement data measured by REW V5.20
* Source: USB-C to 3.5mm Headphone Jack Adapter, USB-C to 3.5mm Headphone Jack Adapter, 0, volume: 0.138
* Format: 256k Log Swept Sine, 1 sweep at -12.0 dBFS with no timing reference
* Dated: Jun 9, 2022 4:39:49 PM
* REW Settings:
*  C-weighting compensation: Off
*  Target level: 75.0 dB
* Note: ; 
* Measurement: (pre-prod) Light L
* Smoothing: None
* Frequency Step: 1/48 octave
* Start Frequency: 20.300 Hz
*
* Freq(Hz)	SPL(dB)	Phase(degrees)
20.299999	105.121277	-146.6744
20.600000	105.136986	-147.2786
20.900000	105.149315	-147.8021
21.200001	105.164017	-148.3206
21.400000	105.175674	-148.6722
21.799999	105.201744	-149.3908
22.000000	105.215225	-149.7535
22.400000	105.241692	-150.4710
22.700001	105.260422	-150.9924
23.000000	105.277908	-151.4983
23.299999	105.293716	-151.9918
23.600000	105.307198	-152.4758
24.000000	105.320839	-153.1044
24.299999	105.328499	-153.5563
24.700001	105.338013	-154.1242
25.000000	105.347046	-154.5261
25.400000	105.363525	-155.0441
25.799999	105.383904	-155.5644
26.200001	105.404007	-156.0999
26.500000	105.416275	-156.5087
26.900000	105.427551	-157.0497
27.200001	105.432915	-157.4438
27.600000	105.438774	-157.9498
28.000000	105.446121	-158.4402
28.500000	105.459106	-159.0494
29.000000	105.472748	-159.6609
29.500000	105.481178	-160.2512
30.000000	105.482208	-160.7795
30.400000	105.480560	-161.1473
30.700001	105.480423	-161.4022
31.100000	105.483704	-161.7425
31.500000	105.490036	-162.1172
32.000000	105.496033	-162.6498
32.500000	105.493622	-163.2067
33.000000	105.484863	-163.7035
33.500000	105.479317	-164.1070
34.000000	105.483765	-164.4675
34.500000	105.494667	-164.8551
35.000000	105.503105	-165.2874
35.500000	105.505356	-165.7281
36.000000	105.505402	-166.1427
36.500000	105.507881	-166.5341
37.000000	105.512039	-166.9222
37.500000	105.514168	-167.3105
38.200001	105.511871	-167.8372
38.700001	105.508438	-168.2070
39.500000	105.499924	-168.8058
40.000000	105.493019	-169.1613
40.599998	105.488609	-169.5533
41.200001	105.489922	-169.9495
41.799999	105.487885	-170.3760
42.500000	105.472458	-170.8353
43.099998	105.458427	-171.1389
43.700001	105.454811	-171.4275
44.400002	105.452568	-171.8580
45.000000	105.438232	-172.2605
45.500000	105.420860	-172.5475
46.200001	105.403854	-172.8763
46.799999	105.397743	-173.1686
47.500000	105.386436	-173.5468
48.200001	105.367805	-173.8858
48.700001	105.357819	-174.0879
49.400002	105.354446	-174.3694
50.000000	105.354675	-174.6388
50.799999	105.347969	-174.9914
51.500000	105.340118	-175.2687
52.200001	105.336784	-175.5867
53.000000	105.330002	-176.0284
53.799999	105.317574	-176.4112
54.500000	105.312904	-176.6734
55.200001	105.307526	-176.9757
56.000000	105.283150	-177.3507
57.000000	105.261459	-177.7065
58.000000	105.265816	-178.1912
59.000000	105.219879	-178.6214
60.000000	105.182480	-178.7168
60.799999	105.187439	-178.9970
61.500000	105.179947	-179.3871
62.200001	105.162247	-179.6819
63.000000	105.149254	-179.9268
64.000000	105.125481	179.7265
65.000000	105.094994	179.4203
66.000000	105.076431	179.1064
67.000000	105.057915	178.8043
68.000000	105.040268	178.5073
69.000000	105.015755	178.1971
70.000000	104.988647	177.9282
71.000000	104.966202	177.6532
72.000000	104.944427	177.3550
73.000000	104.923294	177.0794
74.000000	104.900452	176.8226
75.000000	104.874779	176.5902
76.199997	104.847130	176.2952
77.500000	104.816208	175.9755
78.800003	104.785339	175.6671
80.000000	104.756416	175.4158
81.199997	104.726776	175.1464
82.500000	104.692451	174.8674
83.800003	104.660156	174.5939
85.000000	104.630470	174.3860
86.199997	104.600822	174.1293
87.500000	104.564095	173.9024
88.500000	104.542206	173.7787
90.000000	104.505310	173.5095
91.199997	104.468437	173.2861
92.500000	104.443344	173.0576
93.800003	104.412659	172.8274
95.000000	104.384224	172.6489
96.199997	104.346085	172.4720
97.500000	104.312546	172.3658
98.800003	104.286987	172.2200
100.000000	104.249535	171.9808
101.500000	104.200363	171.7353
103.000000	104.170769	171.5812
104.400002	104.129982	171.4259
106.000000	104.084557	171.2552
107.500000	104.053772	171.0499
109.000000	104.011620	170.9742
110.599998	103.968040	170.8228
112.000000	103.932426	170.6610
113.800003	103.889145	170.5978
115.000000	103.863251	170.5900
117.199997	103.814659	170.3601
118.000000	103.811905	170.3418
120.599998	103.726807	170.3409
122.000000	103.743004	169.8895
124.099998	103.666420	169.9529
125.000000	103.642487	169.8176
126.500000	103.609489	169.7492
128.000000	103.573029	169.5710
131.500000	103.492195	169.4313
132.000000	103.481384	169.3970
134.000000	103.439026	169.3141
136.000000	103.388000	169.2252
138.000000	103.347061	169.1480
140.000000	103.304062	169.1069
143.000000	103.238724	169.0068
145.000000	103.194786	168.9547
147.500000	103.140007	168.9057
150.000000	103.090538	168.8018
152.500000	103.042061	168.7617
155.000000	102.986748	168.7070
157.500000	102.934685	168.6691
160.000000	102.884575	168.6416
162.500000	102.829315	168.6045
165.000000	102.777023	168.5965
167.500000	102.726303	168.5856
170.000000	102.676559	168.5880
172.500000	102.623810	168.6016
175.000000	102.570839	168.6182
177.500000	102.523331	168.6405
180.000000	102.466576	168.7095
182.500000	102.418373	168.6953
185.000000	102.366684	168.7409
187.500000	102.313629	168.8257
190.000000	102.254303	168.9160
192.500000	102.208733	168.9539
195.000000	102.141190	169.0742
197.500000	102.077370	169.2026
200.000000	102.021469	169.3562
203.000000	101.941910	169.7220
206.000000	101.877052	170.2383
209.000000	101.851273	170.9056
212.000000	101.881248	171.3818
214.000000	101.911865	171.5310
218.000000	101.943565	171.4138
220.000000	101.942299	171.3380
224.000000	101.900436	171.1967
227.000000	101.863976	171.1621
230.000000	101.824417	171.1590
233.000000	101.786896	171.1836
236.000000	101.742973	171.2446
240.000000	101.692329	171.1878
243.000000	101.640686	171.4292
247.000000	101.588646	171.5928
250.000000	101.552628	171.7097
254.000000	101.500603	171.8871
258.000000	101.454079	172.0708
262.000000	101.404495	172.2706
265.000000	101.369537	172.4172
269.000000	101.321564	172.6109
272.000000	101.292526	172.7787
276.000000	101.251976	172.9931
280.000000	101.203972	173.2133
285.000000	101.153923	173.4608
290.000000	101.106079	173.7490
295.000000	101.056061	174.0441
300.000000	101.021767	174.3533
304.000000	100.967232	174.6332
307.000000	100.941238	174.8060
311.000000	100.904472	175.0971
315.000000	100.871239	175.3829
320.000000	100.834297	175.7567
325.000000	100.802811	176.1227
330.000000	100.778702	176.4762
335.000000	100.756378	176.7677
340.000000	100.727676	177.0504
345.000000	100.699226	177.3115
350.000000	100.669708	177.5845
355.000000	100.636696	177.8441
360.000000	100.602852	178.1356
365.000000	100.573654	178.4344
370.000000	100.543297	178.7394
375.000000	100.514137	179.0526
382.000000	100.475494	179.4592
387.000000	100.446159	179.7919
395.000000	100.403984	-179.7157
400.000000	100.378090	-179.3835
406.000000	100.351601	-178.9996
412.000000	100.322189	-178.6237
418.000000	100.294754	-178.2209
425.000000	100.263054	-177.7932
431.000000	100.238297	-177.3958
437.000000	100.217148	-177.0155
444.000000	100.188377	-176.5548
450.000000	100.166519	-176.1429
455.000000	100.148521	-175.8261
462.000000	100.128235	-175.3650
468.000000	100.107307	-174.9833
475.000000	100.086884	-174.5225
482.000000	100.066818	-174.0720
487.000000	100.051094	-173.7408
494.000000	100.034004	-173.2881
500.000000	100.020874	-172.8736
508.000000	99.999237	-172.3626
515.000000	99.985641	-171.9072
522.000000	99.971634	-171.4500
530.000000	99.955505	-170.9207
538.000000	99.939034	-170.3900
545.000000	99.927750	-169.9422
552.000000	99.917633	-169.4741
560.000000	99.904953	-168.9360
570.000000	99.891991	-168.2898
580.000000	99.881355	-167.6298
590.000000	99.870697	-166.9593
600.000000	99.863228	-166.2835
608.000000	99.857536	-165.7676
615.000000	99.854424	-165.3034
622.000000	99.851418	-164.8326
630.000000	99.846283	-164.3062
640.000000	99.845810	-163.6310
650.000000	99.845268	-162.9722
660.000000	99.855537	-162.3046
670.000000	99.848442	-161.6308
680.000000	99.853119	-160.9450
690.000000	99.857231	-160.2643
700.000000	99.866333	-159.5777
710.000000	99.873703	-158.8930
720.000000	99.885727	-158.2228
730.000000	99.895256	-157.5052
740.000000	99.908798	-156.8125
750.000000	99.923325	-156.0986
762.000000	99.943008	-155.2333
775.000000	99.967712	-154.2814
788.000000	99.994110	-153.2708
800.000000	100.024918	-152.2912
812.000000	100.072563	-151.1510
825.000000	100.213364	-149.7939
838.000000	100.404190	-149.8307
850.000000	100.367020	-149.7060
862.000000	100.358444	-148.8345
875.000000	100.415352	-147.9529
885.000000	100.449097	-147.3404
900.000000	100.511940	-146.4016
912.000000	100.554962	-145.5961
925.000000	100.619835	-144.7493
938.000000	100.689056	-143.9129
950.000000	100.760490	-143.1526
962.000000	100.832954	-142.4082
975.000000	100.917191	-141.6224
988.000000	101.006287	-140.8612
1000.000000	101.090485	-140.1797
1015.000000	101.201103	-139.3485
1030.000000	101.315643	-138.5665
1044.000000	101.424599	-137.8546
1060.000000	101.554184	-137.0912
1075.000000	101.676651	-136.4130
1090.000000	101.803391	-135.7740
1106.000000	101.938606	-135.1428
1120.000000	102.058907	-134.6185
1138.000000	102.212807	-133.9884
1150.000000	102.315079	-133.6002
1172.000000	102.503250	-132.9424
1180.000000	102.570770	-132.7217
1206.000000	102.788467	-132.0578
1220.000000	102.903877	-131.7214
1241.000000	103.075653	-131.2598
1250.000000	103.148727	-131.0858
1265.000000	103.265984	-130.7872
1280.000000	103.384651	-130.5224
1315.000000	103.655022	-129.9322
1320.000000	103.694489	-129.8335
1340.000000	103.845253	-129.5652
1360.000000	103.993889	-129.2798
1380.000000	104.138763	-129.0007
1400.000000	104.288483	-128.7671
1430.000000	104.508965	-128.4105
1450.000000	104.654602	-128.2059
1475.000000	104.836807	-127.9470
1500.000000	105.019775	-127.7274
1525.000000	105.205193	-127.5249
1550.000000	105.390945	-127.3441
1575.000000	105.579224	-127.2142
1600.000000	105.769775	-127.1099
1625.000000	105.961876	-127.0444
1650.000000	106.154930	-127.0192
1675.000000	106.350098	-127.0502
1700.000000	106.547058	-127.1243
1725.000000	106.744156	-127.2522
1750.000000	106.943352	-127.4365
1775.000000	107.143311	-127.6804
1800.000000	107.342659	-128.0046
1825.000000	107.540512	-128.3650
1850.000000	107.736740	-128.8077
1875.000000	107.931931	-129.3102
1900.000000	108.126869	-129.8948
1925.000000	108.319351	-130.5688
1950.000000	108.506058	-131.3347
1975.000000	108.684875	-132.1959
2000.000000	108.854576	-133.1304
2030.000000	109.045349	-134.3422
2060.000000	109.221107	-135.6653
2090.000000	109.379997	-137.0875
2120.000000	109.517357	-138.6077
2140.000000	109.597794	-139.6626
2180.000000	109.722321	-141.8429
2200.000000	109.768913	-142.9521
2240.000000	109.825752	-145.1911
2270.000000	109.838760	-146.8589
2300.000000	109.827133	-148.4994
2330.000000	109.792259	-150.0837
2360.000000	109.734444	-151.5958
2400.000000	109.626724	-153.4850
2430.000000	109.527565	-154.7815
2470.000000	109.371407	-156.3590
2500.000000	109.239197	-157.4071
2540.000000	109.049225	-158.6240
2580.000000	108.847816	-159.6392
2620.000000	108.638863	-160.4431
2650.000000	108.479858	-160.9266
2690.000000	108.268944	-161.4091
2720.000000	108.112656	-161.6636
2760.000000	107.906960	-161.8637
2800.000000	107.708046	-161.9189
2850.000000	107.469795	-161.8117
2900.000000	107.245010	-161.5427
2950.000000	107.034500	-161.1245
3000.000000	106.838104	-160.5750
3040.000000	106.690948	-160.0668
3070.000000	106.585197	-159.6415
3110.000000	106.451080	-159.0121
3150.000000	106.321396	-158.2974
3200.000000	106.170517	-157.2638
3250.000000	106.041466	-156.0461
3300.000000	105.947075	-154.6567
3350.000000	105.901016	-153.1682
3400.000000	105.913727	-151.7703
3450.000000	105.965485	-150.6580
3500.000000	106.018829	-149.8129
3550.000000	106.060829	-149.1177
3600.000000	106.093735	-148.4639
3650.000000	106.129654	-147.8168
3700.000000	106.165581	-147.1942
3750.000000	106.204880	-146.6264
3820.000000	106.260902	-145.8870
3870.000000	106.300079	-145.3746
3950.000000	106.362297	-144.5697
4000.000000	106.407196	-144.0586
4060.000000	106.465752	-143.4348
4120.000000	106.538651	-142.8094
4180.000000	106.625595	-142.2488
4250.000000	106.739761	-141.7344
4310.000000	106.837418	-141.3912
4370.000000	106.932846	-141.1032
4440.000000	107.041473	-140.7971
4500.000000	107.144547	-140.5246
4550.000000	107.239708	-140.3164
4620.000000	107.397095	-140.1401
4680.000000	107.542694	-140.1774
4750.000000	107.711555	-140.4872
4820.000000	107.865982	-141.0659
4870.000000	107.959869	-141.6459
4940.000000	108.038681	-142.6386
5000.000000	108.026459	-143.4823
5080.000000	107.895668	-143.4748
5150.000000	107.994812	-141.7294
5220.000000	108.437210	-141.5244
5300.000000	108.783920	-143.8021
5380.000000	108.856087	-145.5045
5450.000000	109.131866	-146.8424
5520.000000	109.282578	-149.8600
5600.000000	109.239372	-153.2729
5700.000000	109.004021	-156.9256
5800.000000	108.650391	-159.7819
5900.000000	108.230759	-161.8326
6000.000000	107.787544	-163.0991
6080.000000	107.432800	-163.6060
6150.000000	107.136452	-163.7036
6220.000000	106.854790	-163.5278
6300.000000	106.562706	-163.0058
6400.000000	106.252213	-161.9748
6500.000000	106.014809	-160.6244
6600.000000	105.856659	-159.0821
6700.000000	105.776489	-157.4962
6800.000000	105.770988	-155.9221
6900.000000	105.838318	-154.4466
7000.000000	105.977493	-153.1402
7100.000000	106.181793	-152.0117
7200.000000	106.463615	-151.1447
7300.000000	106.821068	-150.6588
7400.000000	107.249901	-150.6462
7500.000000	107.755981	-151.1686
7620.000000	108.473061	-152.8002
7750.000000	109.373169	-156.3676
7880.000000	110.330460	-162.6952
8000.000000	111.088516	-171.7359
8120.000000	111.431900	176.2268
8250.000000	111.046379	161.9163
8380.000000	109.933708	149.4903
8500.000000	108.562302	141.0092
8620.000000	107.088882	135.2471
8750.000000	105.507355	131.4531
8850.000000	104.353210	129.8849
9000.000000	102.766922	129.1554
9120.000000	101.628410	129.5654
9250.000000	100.522354	130.6166
9380.000000	99.536682	132.1630
9500.000000	98.726265	133.8221
9620.000000	97.994766	135.6495
9750.000000	97.284348	137.7661
9880.000000	96.642387	139.9005
10000.000000	96.099396	141.9559
10150.000000	95.494720	144.7683
10300.000000	94.978569	147.8043
10440.000000	94.594223	150.7432
10600.000000	94.307716	154.2328
10750.000000	94.186424	157.3415
10900.000000	94.198349	160.0953
11060.000000	94.379120	162.4330
11200.000000	94.643097	163.7831
11380.000000	95.135696	164.3149
11500.000000	95.537308	163.8047
11720.000000	96.375320	160.4509
11800.000000	96.680389	158.3204
12060.000000	97.504471	147.9912
12200.000000	97.686905	140.5244
12410.000000	97.488762	128.5209
12500.000000	97.233192	123.5114
12650.000000	96.667496	116.0405
12800.000000	96.002792	109.4554
13150.000000	94.333206	97.1340
13200.000000	94.096237	95.6220
13400.000000	93.192818	90.4466
13600.000000	92.416504	85.9260
13800.000000	91.804245	81.8655
14000.000000	91.399071	77.6667
14300.000000	91.041199	70.5513
14500.000000	91.046806	65.5807
14750.000000	91.464325	58.1306
15000.000000	92.407562	47.3732
15250.000000	93.646606	30.5917
15500.000000	94.496872	6.6435
15750.000000	94.453110	-20.1125
16000.000000	93.876083	-45.4642
16250.000000	93.296127	-69.8581
16500.000000	92.844254	-95.2681
16750.000000	92.445877	-122.9655
17000.000000	91.944206	-153.5615
17250.000000	91.229095	173.1923
17500.000000	90.298767	137.4016
17750.000000	89.129456	98.7552
18000.000000	87.694427	56.4174
18250.000000	85.550690	9.6672
18500.000000	82.376846	-38.9616
18750.000000	78.265366	-85.4478
19000.000000	73.793678	-125.8365
19250.000000	70.551987	-160.3960
19500.000000	69.413696	155.7512
19750.000000	68.864632	91.5802
