* Measurement data measured by REW V5.19
* Source: ASIO MOTU M Series, In 1
* Format: 1M Log Swept Sine, 1 sweep at -3.0 dBFS  With no timing reference
* Dated: 2 Dec, 2020 4:51:44 PM
* REW Settings:
*  C-weighting compensation: Off
*  Target level: 75.0 dB
* Note: ; 
* Measurement: Dec 2 16:51:44
* Smoothing: 1/48 octave
* Frequency Step: 1/48 octave
* Start Frequency: 10.1 Hz
*
* Freq(Hz), SPL(dB), Phase(degrees)
10.145, 60.200, -91.831
10.293, 60.181, -92.503
10.443, 60.162, -93.277
10.595, 60.133, -94.136
10.749, 60.116, -94.864
10.905, 60.133, -95.042
11.064, 60.182, -94.969
11.225, 60.278, -95.070
11.388, 60.416, -95.276
11.554, 60.586, -95.690
11.722, 60.785, -96.316
11.892, 60.983, -97.246
12.065, 61.179, -98.462
12.241, 61.348, -99.923
12.419, 61.489, -101.585
12.599, 61.593, -103.273
12.782, 61.666, -104.971
12.968, 61.711, -106.596
13.157, 61.740, -108.118
13.348, 61.761, -109.486
13.543, 61.787, -110.774
13.740, 61.821, -111.997
13.939, 61.863, -113.255
14.142, 61.907, -114.560
14.348, 61.944, -115.961
14.557, 61.961, -117.399
14.768, 61.954, -118.847
14.983, 61.919, -120.170
15.201, 61.866, -121.302
15.422, 61.804, -122.172
15.646, 61.760, -122.781
15.874, 61.746, -123.222
16.105, 61.775, -123.593
16.339, 61.840, -124.106
16.577, 61.922, -124.836
16.818, 62.000, -125.833
17.063, 62.045, -127.040
17.311, 62.045, -128.282
17.563, 62.000, -129.407
17.818, 61.921, -130.257
18.077, 61.840, -130.729
18.340, 61.787, -130.898
18.607, 61.782, -130.914
18.877, 61.830, -130.975
19.152, 61.916, -131.280
19.431, 62.008, -131.911
19.713, 62.080, -132.804
20.000, 62.118, -133.833
20.291, 62.123, -134.853
20.586, 62.105, -135.757
20.885, 62.082, -136.510
21.189, 62.069, -137.163
21.497, 62.071, -137.805
21.810, 62.082, -138.505
22.127, 62.090, -139.268
22.449, 62.090, -140.045
22.776, 62.083, -140.768
23.107, 62.079, -141.401
23.443, 62.091, -141.979
23.784, 62.120, -142.596
24.130, 62.157, -143.347
24.481, 62.178, -144.244
24.837, 62.164, -145.165
25.198, 62.114, -145.899
25.565, 62.054, -146.263
25.937, 62.029, -146.273
26.314, 62.073, -146.196
26.697, 62.173, -146.412
27.085, 62.273, -147.126
27.479, 62.311, -148.176
27.879, 62.270, -149.127
28.284, 62.191, -149.617
28.696, 62.143, -149.669
29.113, 62.165, -149.707
29.537, 62.214, -150.159
29.966, 62.213, -150.979
30.402, 62.129, -151.677
30.844, 62.012, -151.773
31.293, 61.959, -151.332
31.748, 62.013, -150.933
32.210, 62.120, -151.080
32.678, 62.196, -151.723
33.154, 62.218, -152.487
33.636, 62.214, -153.156
34.125, 62.202, -153.820
34.621, 62.161, -154.504
35.125, 62.085, -154.948
35.636, 62.024, -154.978
36.154, 62.035, -154.900
36.680, 62.092, -155.201
37.214, 62.117, -155.890
37.755, 62.092, -156.499
38.304, 62.077, -156.856
38.861, 62.099, -157.346
39.427, 62.094, -158.128
40.000, 62.023, -158.721
40.582, 61.969, -158.725
41.172, 62.009, -158.646
41.771, 62.080, -159.095
42.379, 62.076, -159.766
42.995, 62.029, -159.932
43.620, 62.049, -159.750
44.255, 62.121, -159.935
44.898, 62.141, -160.517
45.552, 62.089, -160.890
46.214, 62.042, -160.845
46.886, 62.040, -160.770
47.568, 62.046, -160.938
48.260, 62.028, -161.220
48.962, 61.994, -161.400
49.674, 61.982, -161.472
50.397, 62.007, -161.693
51.130, 62.025, -162.245
51.874, 61.988, -162.816
52.628, 61.935, -162.967
53.394, 61.942, -162.889
54.170, 61.983, -163.076
54.958, 61.987, -163.418
55.758, 61.969, -163.522
56.569, 61.977, -163.498
57.391, 61.997, -163.645
58.226, 61.990, -163.873
59.073, 61.974, -163.992
59.932, 61.971, -164.115
60.804, 61.965, -164.314
61.688, 61.959, -164.465
62.586, 61.967, -164.676
63.496, 61.956, -164.954
64.420, 61.941, -165.024
65.357, 61.959, -165.150
66.307, 61.945, -165.484
67.272, 61.894, -165.518
68.250, 61.884, -165.308
69.243, 61.910, -165.318
70.250, 61.913, -165.536
71.272, 61.894, -165.635
72.309, 61.892, -165.629
73.360, 61.903, -165.656
74.427, 61.917, -165.791
75.510, 61.900, -165.920
76.608, 61.898, -165.837
77.723, 61.913, -165.947
78.853, 61.902, -166.053
80.000, 61.902, -166.045
81.164, 61.914, -166.091
82.344, 61.920, -166.155
83.542, 61.924, -166.208
84.757, 61.912, -166.225
85.990, 61.912, -166.165
87.241, 61.912, -166.212
88.510, 61.915, -166.261
89.797, 61.919, -166.370
91.103, 61.928, -166.436
92.428, 61.937, -166.493
93.773, 61.950, -166.458
95.137, 61.964, -166.471
96.520, 61.974, -166.458
97.924, 61.982, -166.541
99.349, 61.980, -166.579
100.794, 61.991, -166.620
102.260, 61.999, -166.679
103.747, 62.018, -166.655
105.256, 62.038, -166.743
106.787, 62.053, -166.749
108.340, 62.075, -166.811
109.916, 62.091, -166.890
111.515, 62.101, -166.937
113.137, 62.117, -166.967
114.783, 62.144, -167.052
116.452, 62.165, -167.306
118.146, 62.169, -167.521
119.865, 62.168, -167.702
121.608, 62.163, -167.859
123.377, 62.150, -167.977
125.171, 62.145, -168.127
126.992, 62.128, -168.264
128.839, 62.117, -168.309
130.713, 62.119, -168.298
132.615, 62.111, -168.381
134.543, 62.094, -168.413
136.500, 62.079, -168.431
138.486, 62.071, -168.438
140.500, 62.060, -168.427
142.544, 62.062, -168.347
144.617, 62.068, -168.341
146.721, 62.065, -168.315
148.855, 62.069, -168.298
151.020, 62.063, -168.326
153.217, 62.056, -168.279
155.445, 62.054, -168.225
157.706, 62.049, -168.190
160.000, 62.048, -168.125
162.327, 62.049, -168.097
164.688, 62.049, -168.051
167.084, 62.049, -167.959
169.514, 62.050, -167.933
171.980, 62.050, -167.915
174.481, 62.049, -167.923
177.019, 62.040, -167.861
179.594, 62.039, -167.729
182.206, 62.053, -167.686
184.856, 62.054, -167.667
187.545, 62.051, -167.565
190.273, 62.053, -167.473
193.041, 62.058, -167.354
195.849, 62.057, -167.261
198.697, 62.055, -167.194
201.587, 62.058, -167.171
204.520, 62.064, -167.063
207.494, 62.071, -166.898
210.512, 62.071, -166.825
213.574, 62.061, -166.678
216.681, 62.055, -166.525
219.833, 62.059, -166.388
223.030, 62.084, -166.243
226.274, 62.092, -166.162
229.565, 62.083, -166.115
232.905, 62.094, -165.998
236.292, 62.098, -165.922
239.729, 62.088, -165.759
243.216, 62.089, -165.601
246.754, 62.104, -165.398
250.343, 62.117, -165.151
253.984, 62.133, -164.976
257.678, 62.147, -164.833
261.426, 62.169, -164.649
265.229, 62.199, -164.531
269.087, 62.214, -164.368
273.001, 62.230, -164.313
276.972, 62.244, -164.248
281.000, 62.258, -164.101
285.088, 62.266, -163.999
289.234, 62.282, -163.977
293.441, 62.292, -163.904
297.710, 62.299, -163.855
302.040, 62.307, -163.785
306.433, 62.309, -163.576
310.890, 62.304, -163.387
315.412, 62.318, -163.234
320.000, 62.320, -163.032
324.655, 62.320, -162.775
329.377, 62.332, -162.545
334.168, 62.352, -162.401
339.028, 62.368, -162.194
343.959, 62.382, -162.022
348.962, 62.399, -161.833
354.038, 62.419, -161.577
359.188, 62.422, -161.348
364.412, 62.443, -161.075
369.713, 62.465, -160.851
375.090, 62.488, -160.648
380.546, 62.519, -160.413
386.081, 62.536, -160.216
391.697, 62.565, -160.030
397.395, 62.592, -159.843
403.175, 62.623, -159.591
409.039, 62.650, -159.449
414.989, 62.686, -159.272
421.025, 62.723, -159.135
427.149, 62.746, -159.064
433.362, 62.766, -158.960
439.665, 62.787, -158.870
446.060, 62.803, -158.764
452.548, 62.819, -158.675
459.131, 62.832, -158.632
465.809, 62.829, -158.630
472.584, 62.782, -158.493
479.458, 62.739, -158.055
486.432, 62.729, -157.422
493.507, 62.750, -156.754
500.686, 62.800, -156.292
507.968, 62.847, -155.901
515.357, 62.891, -155.529
522.853, 62.947, -155.212
530.458, 63.000, -155.010
538.174, 63.040, -154.901
546.002, 63.046, -154.776
553.943, 63.037, -154.370
562.001, 63.063, -153.810
570.175, 63.110, -153.306
578.469, 63.166, -152.834
586.883, 63.228, -152.475
595.419, 63.284, -152.085
604.080, 63.337, -151.693
612.866, 63.391, -151.294
621.780, 63.469, -150.958
630.824, 63.553, -150.700
640.000, 63.627, -150.510
649.309, 63.703, -150.450
658.753, 63.753, -150.451
668.335, 63.787, -150.314
678.056, 63.798, -150.243
687.919, 63.775, -149.854
697.925, 63.817, -149.096
708.076, 63.924, -148.592
718.376, 63.990, -148.474
728.825, 64.029, -147.994
739.426, 64.110, -147.510
750.181, 64.193, -147.185
761.093, 64.254, -146.888
772.163, 64.301, -146.460
783.394, 64.379, -145.900
794.789, 64.492, -145.386
806.349, 64.611, -145.086
818.078, 64.719, -144.860
829.977, 64.819, -144.581
842.050, 64.952, -144.283
854.297, 65.087, -144.239
866.724, 65.199, -144.332
879.330, 65.285, -144.426
892.120, 65.359, -144.586
905.097, 65.400, -144.654
918.262, 65.430, -144.530
931.618, 65.479, -144.013
945.169, 65.592, -143.467
958.917, 65.750, -143.492
972.864, 65.787, -143.920
987.015, 65.773, -143.539
1001.371, 65.816, -142.735
1015.937, 65.979, -141.857
1030.714, 66.154, -141.731
1045.706, 66.274, -141.760
1060.916, 66.373, -141.581
1076.347, 66.544, -141.247
1092.003, 66.697, -141.850
1107.887, 66.675, -142.392
1124.001, 66.610, -141.596
1140.350, 66.720, -140.235
1156.937, 66.918, -139.571
1173.765, 67.062, -138.969
1190.838, 67.291, -138.201
1208.159, 67.558, -137.944
1225.732, 67.779, -138.227
1243.561, 67.926, -138.045
1261.649, 68.206, -137.706
1280.000, 68.450, -138.119
1298.618, 68.679, -138.571
1317.507, 68.828, -139.020
1336.670, 69.002, -138.716
1356.113, 69.317, -138.808
1375.838, 69.571, -139.234
1395.850, 69.905, -139.608
1416.153, 70.281, -140.871
1436.751, 70.481, -142.761
1457.649, 70.691, -143.539
1478.851, 71.025, -145.190
1500.362, 71.286, -147.910
1522.185, 71.307, -151.320
1544.326, 71.170, -153.231
1566.789, 71.015, -154.789
1589.578, 70.858, -154.904
1612.699, 70.858, -155.156
1636.156, 70.766, -154.385
1659.955, 71.063, -153.658
1684.099, 71.348, -154.106
1708.595, 71.608, -154.882
1733.447, 71.964, -156.600
1758.661, 72.155, -158.313
1784.241, 72.626, -161.381
1810.193, 72.400, -167.016
1836.523, 71.950, -168.153
1863.236, 71.882, -167.916
1890.338, 71.875, -169.110
1917.833, 71.973, -169.019
1945.729, 72.313, -171.154
1974.030, 72.244, -176.372
2002.743, 71.605, -178.399
2031.873, 71.496, -177.581
2061.428, 71.198, -179.512
2091.412, 70.952, -178.142
2121.832, 71.024, -177.551
2152.695, 71.080, -178.838
2184.007, 70.970, -179.054
2215.774, 71.188, 179.409
2248.003, 70.865, 177.575
2280.701, 70.809, 177.347
2313.874, 70.580, 176.081
2347.530, 70.518, 177.102
2381.676, 70.580, 174.682
2416.318, 70.196, 173.576
2451.464, 69.983, 173.746
2487.122, 69.684, 174.254
2523.298, 69.681, 175.210
2560.000, 69.605, 174.884
2597.236, 69.573, 175.257
2635.014, 69.571, 173.719
2673.341, 69.141, 172.697
2712.226, 68.638, 174.162
2751.676, 68.324, 177.555
2791.700, 68.497, -179.509
2832.306, 68.581, -177.147
2873.503, 68.945, -174.690
2915.299, 69.438, -174.123
2957.703, 69.806, -175.852
3000.724, 69.616, -176.408
3044.370, 69.932, -173.471
3088.652, 70.496, -174.792
3133.577, 70.743, -176.589
3179.156, 70.832, -177.361
3225.398, 71.286, -177.564
3272.312, 71.665, 178.973
3319.909, 71.792, 176.010
3368.198, 71.889, 172.977
3417.190, 71.854, 169.132
3466.894, 71.658, 167.038
3517.321, 71.611, 164.565
3568.482, 71.324, 162.288
3620.387, 71.314, 161.252
3673.046, 71.336, 158.345
3726.472, 71.126, 154.483
3780.675, 70.776, 150.632
3835.666, 70.174, 147.186
3891.457, 69.250, 146.123
3948.060, 68.562, 148.478
4005.486, 68.606, 150.813
4063.747, 68.757, 147.907
4122.855, 68.105, 142.739
4182.824, 66.891, 141.208
4243.664, 65.522, 144.520
4305.390, 64.761, 152.816
4368.013, 64.962, 159.627
4431.547, 65.148, 161.421
4496.005, 64.931, 163.710
4561.401, 64.874, 167.367
4627.749, 64.840, 171.186
4695.061, 65.060, 175.932
4763.352, 65.704, -179.202
4832.637, 66.719, -178.911
4902.929, 67.155, 177.671
4974.244, 66.950, 175.327
5046.596, 66.791, 178.039
5120.000, 67.232, 179.631
5194.472, 67.486, 179.594
5270.027, 67.847, -179.650
5346.682, 68.220, 179.183
5424.451, 68.356, 178.621
5503.352, 68.553, 178.816
5583.399, 68.887, 179.877
5664.612, 69.505, -179.654
5747.006, 70.294, 179.171
5830.598, 71.136, 175.558
5915.406, 71.706, 168.998
6001.447, 71.820, 162.129
6088.740, 71.747, 156.236
6177.303, 71.503, 149.938
6267.154, 70.890, 145.296
6358.312, 70.340, 142.762
6450.796, 69.891, 141.455
6544.625, 69.601, 140.385
6639.818, 69.487, 139.674
6736.397, 69.630, 137.869
6834.380, 69.812, 133.431
6933.789, 69.712, 126.720
7034.643, 69.162, 119.640
7136.964, 68.289, 113.590
7240.773, 67.239, 109.592
7346.093, 66.202, 105.674
7452.944, 64.713, 102.268
7561.350, 62.919, 104.128
7671.332, 61.437, 109.943
7782.915, 60.645, 117.947
7896.120, 60.412, 124.253
8010.971, 60.404, 130.404
8127.493, 60.718, 133.482
8245.711, 60.835, 135.159
8365.647, 61.089, 137.523
8487.328, 61.640, 137.839
8610.779, 62.167, 136.763
8736.026, 63.080, 132.821
8863.095, 63.633, 121.919
8992.011, 63.173, 108.434
9122.803, 61.852, 96.362
9255.497, 59.894, 89.002
9390.121, 58.093, 85.995
9526.704, 56.885, 82.228
9665.273, 55.843, 73.032
9805.857, 54.584, 56.322
9948.487, 52.463, 35.140
10093.191, 51.124, 13.161
10240.000, 52.203, -13.271
10388.944, 54.138, -40.129
10540.055, 56.527, -58.476
10693.363, 59.161, -73.451
10848.902, 61.711, -88.193
11006.703, 64.394, -105.684
11166.799, 65.855, -132.391
11329.224, 65.467, -158.571
11494.012, 63.734, -178.551
11661.195, 61.032, 174.807
11830.812, 59.537, 175.798
12002.895, 58.620, 174.597
12177.480, 57.828, 174.961
12354.606, 57.507, 174.547
12534.309, 57.396, 170.804
12716.624, 57.028, 161.103
12901.592, 55.351, 146.889
13089.250, 51.591, 143.871
13279.637, 48.933, 152.128
13472.794, 46.885, 139.878
13668.760, 42.994, 79.164
13867.577, 45.359, -20.796
14069.285, 50.124, -59.232
14273.928, 53.572, -76.632
14481.547, 54.388, -90.423
14692.186, 55.220, -93.647
14905.889, 56.364, -97.802
15122.700, 57.199, -104.578
15342.664, 57.504, -111.307
15565.829, 57.316, -117.671
15792.239, 56.986, -121.009
16021.942, 56.383, -122.048
16254.986, 56.463, -121.252
16491.422, 56.442, -124.379
16731.295, 55.795, -128.273
16974.656, 54.213, -126.213
17221.559, 53.924, -107.447
17472.053, 56.704, -101.955
17726.189, 57.827, -112.876
17984.021, 57.488, -122.827
18245.605, 56.530, -127.548
18510.994, 55.330, -126.610
18780.242, 55.047, -120.634
19053.408, 55.572, -119.339
19330.547, 55.805, -121.491
19611.715, 56.104, -125.698
19896.975, 55.873, -132.947
