* Measurement data measured by REW V5.20
* Source: USB-C to 3.5mm Headphone Jack Adapter, USB-C to 3.5mm Headphone Jack Adapter, 0, volume: 0.138
* Format: 256k Log Swept Sine, 1 sweep at -12.0 dBFS with no timing reference
* Dated: Jul 18, 2022 4:35:53 PM
* REW Settings:
*  C-weighting compensation: Off
*  Target level: 75.0 dB
* Note: 
* Measurement: L
* Smoothing: None
* Frequency Step: 1/48 octave
* Start Frequency: 20.300 Hz
*
* Freq(Hz)	SPL(dB)	Phase(degrees)
20.299999	97.488304	-120.7563
20.600000	97.577927	-121.5627
20.900000	97.654823	-122.2673
21.200001	97.727539	-122.9416
21.400000	97.776352	-123.3826
21.799999	97.877930	-124.2765
22.000000	97.930725	-124.7422
22.400000	98.037285	-125.7234
22.700001	98.114029	-126.4955
23.000000	98.185333	-127.2764
23.299999	98.250565	-128.0405
23.600000	98.310944	-128.7667
24.000000	98.388351	-129.6628
24.299999	98.447144	-130.2917
24.700001	98.528465	-131.1050
25.000000	98.590805	-131.7176
25.400000	98.673233	-132.5526
25.799999	98.752571	-133.4040
26.200001	98.828331	-134.2553
26.500000	98.883316	-134.8846
26.900000	98.954720	-135.7051
27.200001	99.006790	-136.3042
27.600000	99.073792	-137.0799
28.000000	99.137680	-137.8306
28.500000	99.213196	-138.7447
29.000000	99.283836	-139.6542
29.500000	99.349136	-140.5729
30.000000	99.409782	-141.4948
30.400000	99.456650	-142.2257
30.700001	99.491783	-142.7677
31.100000	99.539093	-143.4831
31.500000	99.586456	-144.1906
32.000000	99.644447	-145.0609
32.500000	99.700668	-145.9115
33.000000	99.755417	-146.7487
33.500000	99.807861	-147.5840
34.000000	99.856155	-148.4178
34.500000	99.899940	-149.2389
35.000000	99.941185	-150.0421
35.500000	99.981438	-150.8362
36.000000	100.020172	-151.6283
36.500000	100.056595	-152.4100
37.000000	100.091797	-153.1691
37.500000	100.127411	-153.9096
38.200001	100.175415	-154.9453
38.700001	100.204575	-155.6858
39.500000	100.244560	-156.8376
40.000000	100.270927	-157.5434
40.599998	100.304550	-158.4010
41.200001	100.335587	-159.2598
41.799999	100.362511	-160.0904
42.500000	100.391495	-161.0300
43.099998	100.413925	-161.8400
43.700001	100.433174	-162.6510
44.400002	100.455803	-163.5750
45.000000	100.477600	-164.3548
45.500000	100.494858	-165.0015
46.200001	100.513908	-165.8850
46.799999	100.527054	-166.6113
47.500000	100.541725	-167.4477
48.200001	100.552940	-168.3009
48.700001	100.556709	-168.9131
49.400002	100.558250	-169.7448
50.000000	100.561523	-170.4247
50.799999	100.572914	-171.3083
51.500000	100.584206	-172.0888
52.200001	100.588959	-172.8981
53.000000	100.579712	-173.8678
53.799999	100.559273	-174.7978
54.500000	100.549927	-175.5179
55.200001	100.550636	-176.2100
56.000000	100.545883	-176.9783
57.000000	100.546967	-177.9312
58.000000	100.531952	-179.0058
59.000000	100.500504	-179.5253
60.000000	100.547623	179.8079
60.799999	100.532944	178.6111
61.500000	100.474808	177.6862
62.200001	100.450493	177.0132
63.000000	100.454399	176.2438
64.000000	100.431709	175.3652
65.000000	100.401390	174.4941
66.000000	100.364456	173.5748
67.000000	100.341927	172.7628
68.000000	100.311119	171.8921
69.000000	100.269974	171.0170
70.000000	100.235703	170.1866
71.000000	100.211571	169.4081
72.000000	100.173523	168.5823
73.000000	100.133102	167.8249
74.000000	100.100716	166.9987
75.000000	100.051437	166.2532
76.199997	100.002968	165.3754
77.500000	99.941826	164.3644
78.800003	99.894928	163.4061
80.000000	99.845161	162.7534
81.199997	99.795822	161.8498
82.500000	99.699921	160.8355
83.800003	99.642845	159.9448
85.000000	99.577980	159.1833
86.199997	99.512535	158.3621
87.500000	99.434814	157.4969
88.500000	99.381287	156.9015
90.000000	99.291351	155.9874
91.199997	99.220726	155.2361
92.500000	99.143822	154.4533
93.800003	99.067596	153.7012
95.000000	98.985916	153.0187
96.199997	98.908012	152.3336
97.500000	98.828369	151.6362
98.800003	98.750862	150.9394
100.000000	98.662231	150.3323
101.500000	98.558685	149.5275
103.000000	98.453018	148.7662
104.400002	98.351013	148.0809
106.000000	98.239243	147.3294
107.500000	98.122238	146.6212
109.000000	98.008865	145.9715
110.599998	97.883095	145.2895
112.000000	97.775925	144.7378
113.800003	97.632713	144.0494
115.000000	97.547333	143.6198
117.199997	97.373749	142.8181
118.000000	97.306152	142.4454
120.599998	97.173615	141.5652
122.000000	96.988182	141.2457
124.099998	96.826401	140.4572
125.000000	96.759171	140.2355
126.500000	96.626709	139.7263
128.000000	96.505898	139.3101
131.500000	96.203903	138.3686
132.000000	96.157463	138.2571
134.000000	95.986969	137.7383
136.000000	95.807411	137.3692
138.000000	95.631668	137.0011
140.000000	95.452179	136.6569
143.000000	95.181274	136.2147
145.000000	95.004547	135.9949
147.500000	94.778114	135.7275
150.000000	94.552948	135.5228
152.500000	94.330803	135.4270
155.000000	94.099770	135.3585
157.500000	93.870705	135.3790
160.000000	93.646881	135.5040
162.500000	93.426018	135.6296
165.000000	93.210022	135.8688
167.500000	92.999847	136.1801
170.000000	92.789589	136.5497
172.500000	92.591057	136.9362
175.000000	92.394386	137.4394
177.500000	92.194855	137.9497
180.000000	92.052711	138.4294
182.500000	91.841782	139.1977
185.000000	91.685310	139.8458
187.500000	91.524445	140.5201
190.000000	91.381775	141.3596
192.500000	91.230492	142.0280
195.000000	91.116653	142.7946
197.500000	90.973801	143.6543
200.000000	90.853867	144.4787
203.000000	90.738693	145.4455
206.000000	90.621994	146.4017
209.000000	90.516617	147.4402
212.000000	90.426598	148.4590
214.000000	90.370766	149.1039
218.000000	90.277336	150.3796
220.000000	90.231018	151.0082
224.000000	90.154938	152.2595
227.000000	90.101868	153.0694
230.000000	90.060471	153.9356
233.000000	90.015663	154.6978
236.000000	89.992599	155.6060
240.000000	90.093536	156.5791
243.000000	89.920120	157.2188
247.000000	89.892998	158.2000
250.000000	89.877945	158.9109
254.000000	89.845444	159.7769
258.000000	89.830101	160.6213
262.000000	89.798599	161.5239
265.000000	89.781754	162.1534
269.000000	89.762848	163.2061
272.000000	89.751236	163.9387
276.000000	89.755905	165.0322
280.000000	89.816132	166.1027
285.000000	89.920052	167.2099
290.000000	90.039536	167.8472
295.000000	90.160683	168.2134
300.000000	90.320862	168.5906
304.000000	90.276810	168.5643
307.000000	90.306831	168.6848
311.000000	90.323883	168.7742
315.000000	90.338608	168.8892
320.000000	90.349541	168.9965
325.000000	90.351433	169.1254
330.000000	90.354980	169.2766
335.000000	90.348282	169.4341
340.000000	90.339722	169.6542
345.000000	90.330933	169.7835
350.000000	90.313705	170.0464
355.000000	90.301781	170.2227
360.000000	90.271767	170.4971
365.000000	90.277252	170.6841
370.000000	90.261169	170.8834
375.000000	90.242203	171.1375
382.000000	90.223862	171.4076
387.000000	90.205261	171.5544
395.000000	90.176750	171.9736
400.000000	90.151749	172.1452
406.000000	90.131653	172.3963
412.000000	90.093582	172.7026
418.000000	90.079277	172.9752
425.000000	90.036903	173.3268
431.000000	90.009750	173.6114
437.000000	89.976929	173.9442
444.000000	89.940720	174.3218
450.000000	89.913895	174.6152
455.000000	89.891174	174.9390
462.000000	89.855949	175.3211
468.000000	89.829491	175.6675
475.000000	89.789841	176.1226
482.000000	89.766312	176.5816
487.000000	89.738480	176.9375
494.000000	89.706085	177.4078
500.000000	89.686325	177.8611
508.000000	89.669365	178.4279
515.000000	89.653976	178.9432
522.000000	89.644020	179.4262
530.000000	89.627060	179.9454
538.000000	89.603310	-179.5764
545.000000	89.594788	-179.1461
552.000000	89.580444	-178.6478
560.000000	89.562813	-178.1223
570.000000	89.535416	-177.4251
580.000000	89.517715	-176.7441
590.000000	89.504303	-176.0649
600.000000	89.487968	-175.2162
608.000000	89.486641	-174.7474
615.000000	89.481056	-174.2387
622.000000	89.478699	-173.7246
630.000000	89.474670	-173.1358
640.000000	89.475677	-172.3851
650.000000	89.484970	-171.6486
660.000000	89.507050	-171.2693
670.000000	89.500290	-170.1395
680.000000	89.520470	-169.3941
690.000000	89.544464	-168.6575
700.000000	89.564896	-167.9271
710.000000	89.592415	-167.2842
720.000000	89.612732	-166.5923
730.000000	89.648041	-165.8454
740.000000	89.677948	-165.1770
750.000000	89.710854	-164.5182
762.000000	89.760109	-163.7260
775.000000	89.807877	-162.9128
788.000000	89.856552	-162.0967
800.000000	89.903603	-161.3835
812.000000	89.950470	-160.6373
825.000000	90.003090	-159.8250
838.000000	90.047882	-159.0680
850.000000	90.114151	-158.3113
862.000000	90.165154	-157.6042
875.000000	90.224182	-156.8184
885.000000	90.271759	-156.1962
900.000000	90.398468	-155.4784
912.000000	90.418320	-154.5735
925.000000	90.497406	-153.7906
938.000000	90.568893	-153.0265
950.000000	90.645630	-152.3040
962.000000	90.714905	-151.5869
975.000000	90.818398	-150.8511
988.000000	90.917450	-150.1238
1000.000000	91.007881	-149.4569
1015.000000	91.132698	-148.6860
1030.000000	91.257973	-147.9537
1044.000000	91.377571	-147.2836
1060.000000	91.520981	-146.5819
1075.000000	91.658707	-145.9769
1090.000000	91.791855	-145.3806
1106.000000	91.943977	-144.8640
1120.000000	92.073845	-144.4397
1138.000000	92.241592	-143.8973
1150.000000	92.347801	-143.6568
1172.000000	92.546097	-143.1917
1180.000000	92.615791	-143.0461
1206.000000	92.836357	-142.6465
1220.000000	92.953003	-142.4477
1241.000000	93.110519	-142.1904
1250.000000	93.181610	-142.1104
1265.000000	93.289848	-141.9840
1280.000000	93.393387	-141.8497
1315.000000	93.617477	-141.5900
1320.000000	93.659966	-141.6874
1340.000000	93.762123	-141.3489
1360.000000	93.875839	-141.1510
1380.000000	93.988159	-141.1163
1400.000000	94.084793	-140.7168
1430.000000	94.235985	-140.3358
1450.000000	94.333031	-140.0548
1475.000000	94.458336	-139.6647
1500.000000	94.584526	-139.3100
1525.000000	94.708076	-138.8780
1550.000000	94.835999	-138.4397
1575.000000	94.962975	-138.0042
1600.000000	95.098267	-137.6076
1625.000000	95.232246	-137.1554
1650.000000	95.366653	-136.7214
1675.000000	95.502625	-136.2758
1700.000000	95.642303	-135.8607
1725.000000	95.781975	-135.4494
1750.000000	95.927773	-135.0336
1775.000000	96.070847	-134.6307
1800.000000	96.208313	-134.2727
1825.000000	96.366638	-133.8376
1850.000000	96.515549	-133.4638
1875.000000	96.666725	-133.1146
1900.000000	96.822441	-132.7753
1925.000000	96.979103	-132.4518
1950.000000	97.136780	-132.1505
1975.000000	97.299385	-131.8707
2000.000000	97.457741	-131.6221
2030.000000	97.654709	-131.3569
2060.000000	97.850510	-131.1115
2090.000000	98.048264	-130.9177
2120.000000	98.243286	-130.7685
2140.000000	98.373177	-130.6790
2180.000000	98.636208	-130.5869
2200.000000	98.767395	-130.5358
2240.000000	99.025826	-130.5601
2270.000000	99.219101	-130.6190
2300.000000	99.408600	-130.7337
2330.000000	99.594742	-130.9002
2360.000000	99.778130	-131.0956
2400.000000	100.014740	-131.4229
2430.000000	100.185547	-131.7486
2470.000000	100.405914	-132.2050
2500.000000	100.564247	-132.6156
2540.000000	100.763535	-133.1922
2580.000000	100.947929	-133.8073
2620.000000	101.122017	-134.5110
2650.000000	101.240692	-135.0315
2690.000000	101.386452	-135.7518
2720.000000	101.484993	-136.3024
2760.000000	101.611488	-137.0268
2800.000000	101.716339	-137.7702
2850.000000	101.833328	-138.6777
2900.000000	101.928925	-139.5381
2950.000000	102.008553	-140.3894
3000.000000	102.072731	-141.1769
3040.000000	102.113617	-141.7968
3070.000000	102.136047	-142.2112
3110.000000	102.158615	-142.7575
3150.000000	102.173141	-143.2421
3200.000000	102.187157	-143.7621
3250.000000	102.193192	-144.2392
3300.000000	102.194771	-144.6680
3350.000000	102.192329	-145.0297
3400.000000	102.186829	-145.3628
3450.000000	102.175629	-145.6574
3500.000000	102.162170	-145.9010
3550.000000	102.144539	-146.1187
3600.000000	102.128227	-146.3117
3650.000000	102.105179	-146.4827
3700.000000	102.081604	-146.6196
3750.000000	102.053833	-146.7328
3820.000000	102.015144	-146.8789
3870.000000	101.982872	-146.9480
3950.000000	101.931953	-147.0471
4000.000000	101.895447	-147.0775
4060.000000	101.852287	-147.0941
4120.000000	101.808693	-147.1110
4180.000000	101.763626	-147.1187
4250.000000	101.710045	-147.1003
4310.000000	101.663712	-147.0977
4370.000000	101.617424	-147.0942
4440.000000	101.563728	-147.1058
4500.000000	101.517365	-147.1156
4550.000000	101.477211	-147.1267
4620.000000	101.422729	-147.2034
4680.000000	101.374306	-147.2918
4750.000000	101.319145	-147.4041
4820.000000	101.263344	-147.5736
4870.000000	101.221252	-147.7364
4940.000000	101.161819	-148.0249
5000.000000	101.103195	-148.3109
5080.000000	101.023552	-148.7694
5150.000000	100.942017	-149.2423
5220.000000	100.846703	-149.7496
5300.000000	100.731644	-150.3814
5380.000000	100.603493	-151.0586
5450.000000	100.478607	-151.6518
5520.000000	100.348068	-152.2466
5600.000000	100.179382	-152.9145
5700.000000	99.964714	-153.6627
5800.000000	99.749115	-154.3687
5900.000000	99.538757	-155.0169
6000.000000	99.330292	-155.6101
6080.000000	99.169434	-156.0820
6150.000000	99.039658	-156.4556
6220.000000	98.916267	-156.7844
6300.000000	98.790787	-157.1246
6400.000000	98.660492	-157.5762
6500.000000	98.564507	-158.0413
6600.000000	98.503654	-158.5165
6700.000000	98.477615	-158.9933
6800.000000	98.498810	-159.5623
6900.000000	98.567314	-160.1869
7000.000000	98.693375	-160.9436
7100.000000	98.880989	-161.8598
7200.000000	99.143135	-163.1033
7300.000000	99.463882	-164.7955
7400.000000	99.830559	-167.0732
7500.000000	100.226082	-169.9881
7620.000000	100.713776	-174.5527
7750.000000	101.179337	179.0905
7880.000000	101.472260	171.2968
8000.000000	101.490280	163.3066
8120.000000	101.224792	155.3436
8250.000000	100.653984	147.6573
8380.000000	99.902573	141.4297
8500.000000	99.133133	136.9574
8620.000000	98.317345	133.6102
8750.000000	97.431778	131.1710
8850.000000	96.764374	130.0846
9000.000000	95.835182	129.3447
9120.000000	95.146538	129.3728
9250.000000	94.443695	129.8743
9380.000000	93.798691	130.5441
9500.000000	93.204300	131.3897
9620.000000	92.613297	132.5394
9750.000000	91.949089	134.2276
9880.000000	91.306679	136.7017
10000.000000	90.826302	139.5427
10150.000000	90.254311	143.2485
10300.000000	89.850975	147.1915
10440.000000	89.537346	150.7297
10600.000000	89.255219	154.5912
10750.000000	89.058395	158.0048
10900.000000	88.884575	161.1341
11060.000000	88.760284	164.1624
11200.000000	88.667648	166.4836
11380.000000	88.572990	168.8120
11500.000000	88.498245	170.1627
11720.000000	88.257027	172.3475
11800.000000	88.144470	173.0925
12060.000000	87.840103	177.2462
12200.000000	87.858650	179.7532
12410.000000	88.103989	-177.2247
12500.000000	88.259964	-176.2275
12650.000000	88.616585	-175.2532
12800.000000	89.087967	-174.8690
13150.000000	90.718933	-176.9793
13200.000000	91.061325	-177.8122
13400.000000	92.594185	177.2692
13600.000000	94.681152	168.0650
13800.000000	97.420685	150.8367
14000.000000	100.135788	118.1046
14300.000000	98.863220	51.5252
14500.000000	95.836464	22.9766
14750.000000	92.837944	-0.3419
15000.000000	90.834686	-18.8056
15250.000000	89.701088	-34.4386
15500.000000	89.134987	-49.5895
15750.000000	89.028275	-64.6215
16000.000000	89.263023	-80.4985
16250.000000	89.765228	-97.8156
16500.000000	90.432869	-118.0991
16750.000000	91.060791	-142.1078
17000.000000	91.357567	-170.3670
17250.000000	91.024261	158.5109
17500.000000	90.021362	126.8620
17750.000000	88.636429	96.3464
18000.000000	87.208397	66.2707
18250.000000	85.834755	35.4070
18500.000000	84.640022	2.2681
18750.000000	83.574409	-34.8488
19000.000000	82.596497	-77.2939
19250.000000	81.536644	-125.9495
19500.000000	80.410820	172.3158
19750.000000	78.728584	100.3496
