* Measurement data measured by REW V5.20
* Source: USB-C to 3.5mm Headphone Jack Adapter, USB-C to 3.5mm Headphone Jack Adapter, 0, volume: 0.138
* Format: 256k Log Swept Sine, 1 sweep at -12.0 dBFS with no timing reference
* Dated: Jul 22, 2022 5:25:05 PM
* REW Settings:
*  C-weighting compensation: Off
*  Target level: 75.0 dB
* Note: 
* Measurement: S2 R
* Smoothing: None
* Frequency Step: 1/48 octave
* Start Frequency: 20.300 Hz
*
* Freq(Hz)	SPL(dB)	Phase(degrees)
20.299999	97.875061	-121.7768
20.600000	97.946686	-122.5311
20.900000	98.012321	-123.1596
21.200001	98.081184	-123.7579
21.400000	98.130722	-124.1593
21.799999	98.236008	-125.0112
22.000000	98.289062	-125.4727
22.400000	98.388519	-126.4583
22.700001	98.451614	-127.2172
23.000000	98.503983	-127.9494
23.299999	98.548943	-128.6205
23.600000	98.592781	-129.2169
24.000000	98.661156	-129.9278
24.299999	98.723930	-130.4558
24.700001	98.819366	-131.2385
25.000000	98.891396	-131.9102
25.400000	98.976242	-132.8912
25.799999	99.042534	-133.8773
26.200001	99.096008	-134.7749
26.500000	99.134964	-135.3682
26.900000	99.192810	-136.0774
27.200001	99.241707	-136.5773
27.600000	99.310287	-137.2340
28.000000	99.377647	-137.8853
28.500000	99.457481	-138.6819
29.000000	99.535805	-139.4881
29.500000	99.611847	-140.3714
30.000000	99.676720	-141.3496
30.400000	99.717224	-142.1520
30.700001	99.743065	-142.7298
31.100000	99.777016	-143.4446
31.500000	99.815674	-144.1038
32.000000	99.871040	-144.8926
32.500000	99.927216	-145.6709
33.000000	99.978928	-146.4290
33.500000	100.028625	-147.1651
34.000000	100.079422	-147.9171
34.500000	100.127792	-148.7169
35.000000	100.167206	-149.5384
35.500000	100.197128	-150.3201
36.000000	100.224335	-151.0309
36.500000	100.255646	-151.6994
37.000000	100.291870	-152.3820
37.500000	100.328979	-153.1124
38.200001	100.374344	-154.1898
38.700001	100.400238	-154.9402
39.500000	100.437988	-156.0068
40.000000	100.465157	-156.6055
40.599998	100.499771	-157.3351
41.200001	100.528107	-158.1145
41.799999	100.548851	-158.9082
42.500000	100.574921	-159.8123
43.099998	100.601433	-160.5877
43.700001	100.621994	-161.3564
44.400002	100.633560	-162.1873
45.000000	100.641136	-162.8594
45.500000	100.649536	-163.4388
46.200001	100.661964	-164.2896
46.799999	100.671577	-164.9985
47.500000	100.681892	-165.7609
48.200001	100.685989	-166.4892
48.700001	100.683525	-167.0086
49.400002	100.683014	-167.7482
50.000000	100.696236	-168.4236
50.799999	100.724716	-169.4012
51.500000	100.734512	-170.2132
52.200001	100.728233	-170.8790
53.000000	100.723053	-171.6104
53.799999	100.720123	-172.4864
54.500000	100.715355	-173.2651
55.200001	100.712250	-173.9567
56.000000	100.709991	-174.6519
57.000000	100.719635	-175.6504
58.000000	100.668030	-176.8965
59.000000	100.582359	-177.1764
60.000000	100.653229	-177.6101
60.799999	100.641907	-178.9388
61.500000	100.557724	-179.7829
62.200001	100.537071	179.8372
63.000000	100.577423	179.1901
64.000000	100.551636	178.2303
65.000000	100.500801	177.4855
66.000000	100.457497	176.5892
67.000000	100.417786	175.8215
68.000000	100.391342	175.1154
69.000000	100.361473	174.3467
70.000000	100.324013	173.5920
71.000000	100.289780	172.9299
72.000000	100.251358	172.2422
73.000000	100.201859	171.5124
74.000000	100.146233	170.7716
75.000000	100.097031	170.1010
76.199997	100.054558	169.2870
77.500000	99.994194	168.4440
78.800003	99.922050	167.7485
80.000000	99.848724	166.9803
81.199997	99.783775	166.2711
82.500000	99.738861	165.4199
83.800003	99.657524	164.7628
85.000000	99.596718	164.0542
86.199997	99.516998	163.3391
87.500000	99.448013	162.7231
88.500000	99.388603	162.1597
90.000000	99.298996	161.2902
91.199997	99.215286	160.6946
92.500000	99.143127	160.1649
93.800003	99.062599	159.4308
95.000000	98.984627	158.9290
96.199997	98.895142	158.2454
97.500000	98.805176	157.8048
98.800003	98.741516	157.1326
100.000000	98.628128	156.7167
101.500000	98.535591	156.2457
103.000000	98.426857	155.5309
104.400002	98.314156	155.0219
106.000000	98.191513	154.2993
107.500000	98.104195	153.7796
109.000000	97.944206	153.3160
110.599998	97.841637	152.9293
112.000000	97.710495	152.4062
113.800003	97.576530	151.8539
115.000000	97.481346	151.5051
117.199997	97.258751	150.9677
118.000000	97.200958	150.7094
120.599998	97.008293	150.5344
122.000000	96.830757	150.2318
124.099998	96.648766	149.9399
125.000000	96.564941	149.7903
126.500000	96.433762	149.7440
128.000000	96.301865	149.7314
131.500000	96.009674	149.7161
132.000000	95.975739	149.7205
134.000000	95.817413	149.6216
136.000000	95.649246	149.6896
138.000000	95.501144	149.6804
140.000000	95.361816	149.8565
143.000000	95.121460	149.7842
145.000000	94.952560	149.9417
147.500000	94.746887	150.0973
150.000000	94.534546	150.3231
152.500000	94.315849	150.5483
155.000000	94.085892	150.9590
157.500000	93.831505	151.4399
160.000000	93.586838	152.2598
162.500000	93.324478	153.3470
165.000000	93.070770	154.9123
167.500000	92.874123	156.8742
170.000000	92.775940	159.1425
172.500000	92.797638	161.3520
175.000000	92.882767	163.0223
177.500000	93.000854	164.2226
180.000000	93.156883	164.9820
182.500000	93.176590	165.5634
185.000000	93.254303	165.8374
187.500000	93.278702	166.1915
190.000000	93.316010	166.6412
192.500000	93.331100	166.7395
195.000000	93.336655	167.1921
197.500000	93.345810	167.4602
200.000000	93.367363	167.7129
203.000000	93.371483	168.0111
206.000000	93.380478	168.2664
209.000000	93.385040	168.5907
212.000000	93.388290	168.7952
214.000000	93.388779	168.9854
218.000000	93.378860	169.3377
220.000000	93.387497	169.5046
224.000000	93.389153	169.7968
227.000000	93.378807	170.0482
230.000000	93.388298	170.3008
233.000000	93.375107	170.5463
236.000000	93.379211	170.6849
240.000000	93.465057	171.3056
243.000000	93.387932	171.0407
247.000000	93.384888	171.3100
250.000000	93.373009	171.4919
254.000000	93.376785	171.6829
258.000000	93.370430	171.8381
262.000000	93.374237	172.0455
265.000000	93.361313	172.1448
269.000000	93.355972	172.3190
272.000000	93.335083	172.4686
276.000000	93.333618	172.5972
280.000000	93.316727	172.7510
285.000000	93.301628	172.8581
290.000000	93.291504	173.0520
295.000000	93.264633	173.1323
300.000000	93.264191	173.6140
304.000000	93.220932	173.4459
307.000000	93.203789	173.4982
311.000000	93.181885	173.5867
315.000000	93.156433	173.7426
320.000000	93.118996	173.9158
325.000000	93.083298	174.1393
330.000000	93.069672	174.2833
335.000000	93.029449	174.4087
340.000000	92.992188	174.6714
345.000000	92.953873	174.8512
350.000000	92.915565	175.0867
355.000000	92.871971	175.2895
360.000000	92.825867	175.5403
365.000000	92.793839	175.8160
370.000000	92.755440	176.2252
375.000000	92.716644	176.5855
382.000000	92.687317	177.1364
387.000000	92.678139	177.5929
395.000000	92.677071	178.0700
400.000000	92.670624	178.2968
406.000000	92.671936	178.4873
412.000000	92.648758	178.6727
418.000000	92.620682	178.8267
425.000000	92.583397	179.0827
431.000000	92.546028	179.3131
437.000000	92.509399	179.5760
444.000000	92.463417	179.9022
450.000000	92.423943	-179.8009
455.000000	92.394226	-179.5181
462.000000	92.347389	-179.0948
468.000000	92.306686	-178.7224
475.000000	92.264862	-178.2957
482.000000	92.224831	-177.8240
487.000000	92.198578	-177.5068
494.000000	92.159698	-177.0146
500.000000	92.131371	-176.5649
508.000000	92.091194	-175.9732
515.000000	92.062111	-175.4838
522.000000	92.035080	-174.9347
530.000000	92.003891	-174.3124
538.000000	91.974648	-173.6807
545.000000	91.955215	-173.1034
552.000000	91.937340	-172.5167
560.000000	91.913727	-171.8543
570.000000	91.902252	-171.0224
580.000000	91.887405	-170.1690
590.000000	91.879875	-169.2961
600.000000	91.871506	-168.4756
608.000000	91.881294	-167.7725
615.000000	91.891998	-167.2120
622.000000	91.899078	-166.5819
630.000000	91.913269	-165.9102
640.000000	91.933800	-165.1229
650.000000	91.968323	-164.2869
660.000000	92.031700	-163.3992
670.000000	92.030830	-162.7611
680.000000	92.070923	-162.0315
690.000000	92.116432	-161.3195
700.000000	92.162003	-160.6776
710.000000	92.210251	-159.9880
720.000000	92.264008	-159.3980
730.000000	92.314743	-158.8152
740.000000	92.360985	-158.2903
750.000000	92.409782	-157.7866
762.000000	92.459717	-157.1902
775.000000	92.512573	-156.5806
788.000000	92.559692	-155.9759
800.000000	92.600372	-155.4194
812.000000	92.636307	-154.8680
825.000000	92.679817	-154.2189
838.000000	92.719765	-153.6044
850.000000	92.751572	-152.9835
862.000000	92.785805	-152.3442
875.000000	92.824989	-151.6343
885.000000	92.853561	-151.0836
900.000000	92.908478	-150.0262
912.000000	92.953995	-149.5539
925.000000	93.006828	-148.7785
938.000000	93.064079	-148.0133
950.000000	93.118347	-147.3106
962.000000	93.181648	-146.6226
975.000000	93.254944	-145.8733
988.000000	93.332169	-145.1136
1000.000000	93.405060	-144.4644
1015.000000	93.501404	-143.6302
1030.000000	93.605888	-142.8496
1044.000000	93.707260	-142.1576
1060.000000	93.828232	-141.3701
1075.000000	93.948776	-140.7113
1090.000000	94.065376	-140.0837
1106.000000	94.192314	-139.4415
1120.000000	94.303909	-138.9471
1138.000000	94.451279	-138.3739
1150.000000	94.547989	-137.9824
1172.000000	94.722488	-137.3628
1180.000000	94.786339	-137.1653
1206.000000	94.987068	-136.5431
1220.000000	95.090225	-136.2525
1241.000000	95.243149	-135.8521
1250.000000	95.308968	-135.6630
1265.000000	95.414230	-135.4112
1280.000000	95.515366	-135.1949
1315.000000	95.738800	-134.6390
1320.000000	95.765640	-134.4776
1340.000000	95.892334	-134.2768
1360.000000	96.009567	-134.0025
1380.000000	96.122208	-133.6418
1400.000000	96.234604	-133.4305
1430.000000	96.398239	-132.9809
1450.000000	96.503319	-132.6830
1475.000000	96.636185	-132.3041
1500.000000	96.766075	-131.9314
1525.000000	96.897217	-131.5208
1550.000000	97.027184	-131.1120
1575.000000	97.157883	-130.6906
1600.000000	97.292740	-130.2844
1625.000000	97.424820	-129.8698
1650.000000	97.561783	-129.4650
1675.000000	97.698639	-129.0496
1700.000000	97.840454	-128.6480
1725.000000	97.984306	-128.2667
1750.000000	98.126945	-127.8917
1775.000000	98.276566	-127.5288
1800.000000	98.430168	-127.1548
1825.000000	98.578934	-126.8684
1850.000000	98.735489	-126.5466
1875.000000	98.892601	-126.2704
1900.000000	99.051987	-126.0235
1925.000000	99.212883	-125.7923
1950.000000	99.376472	-125.5855
1975.000000	99.539337	-125.4118
2000.000000	99.707489	-125.2831
2030.000000	99.907661	-125.1492
2060.000000	100.107574	-125.0984
2090.000000	100.306137	-125.0886
2120.000000	100.509773	-125.1231
2140.000000	100.642761	-125.2050
2180.000000	100.903824	-125.3972
2200.000000	101.034607	-125.5398
2240.000000	101.290955	-125.8914
2270.000000	101.479004	-126.2325
2300.000000	101.661171	-126.6226
2330.000000	101.837486	-127.0699
2360.000000	102.008240	-127.5785
2400.000000	102.224953	-128.3150
2430.000000	102.375450	-128.9216
2470.000000	102.563782	-129.7926
2500.000000	102.693214	-130.4993
2540.000000	102.849091	-131.4702
2580.000000	102.993446	-132.4650
2620.000000	103.109795	-133.4839
2650.000000	103.187149	-134.2457
2690.000000	103.276192	-135.2501
2720.000000	103.329979	-135.9860
2760.000000	103.390648	-136.9577
2800.000000	103.431328	-137.8652
2850.000000	103.467514	-138.9338
2900.000000	103.482780	-139.9151
2950.000000	103.485977	-140.7926
3000.000000	103.474068	-141.5660
3040.000000	103.460701	-142.1043
3070.000000	103.445938	-142.4596
3110.000000	103.424774	-142.8950
3150.000000	103.403641	-143.2558
3200.000000	103.372818	-143.6460
3250.000000	103.341919	-143.9411
3300.000000	103.312447	-144.1774
3350.000000	103.284889	-144.3506
3400.000000	103.261467	-144.4816
3450.000000	103.236794	-144.5711
3500.000000	103.219681	-144.6230
3550.000000	103.204041	-144.6626
3600.000000	103.191795	-144.6855
3650.000000	103.177643	-144.6889
3700.000000	103.167343	-144.6875
3750.000000	103.156631	-144.6853
3820.000000	103.141083	-144.6624
3870.000000	103.128807	-144.6351
3950.000000	103.111412	-144.5169
4000.000000	103.102936	-144.4302
4060.000000	103.098297	-144.2973
4120.000000	103.096191	-144.1483
4180.000000	103.101364	-143.9775
4250.000000	103.119820	-143.7858
4310.000000	103.146385	-143.6183
4370.000000	103.185539	-143.5271
4440.000000	103.236511	-143.5332
4500.000000	103.283157	-143.6206
4550.000000	103.323669	-143.7422
4620.000000	103.378777	-144.0203
4680.000000	103.425751	-144.3209
4750.000000	103.477524	-144.8015
4820.000000	103.523392	-145.3926
4870.000000	103.553528	-145.8714
4940.000000	103.582764	-146.6696
5000.000000	103.595642	-147.4238
5080.000000	103.598038	-148.5278
5150.000000	103.581558	-149.5739
5220.000000	103.545570	-150.6810
5300.000000	103.484344	-152.0120
5380.000000	103.398148	-153.3595
5450.000000	103.296371	-154.5688
5520.000000	103.176003	-155.7457
5600.000000	103.012177	-157.0325
5700.000000	102.781006	-158.5270
5800.000000	102.521713	-159.8204
5900.000000	102.245827	-160.9299
6000.000000	101.960640	-161.8193
6080.000000	101.732895	-162.3848
6150.000000	101.534225	-162.7635
6220.000000	101.340317	-163.0261
6300.000000	101.125832	-163.2134
6400.000000	100.880028	-163.2341
6500.000000	100.668602	-163.0379
6600.000000	100.496445	-162.6760
6700.000000	100.381210	-162.2085
6800.000000	100.326569	-161.7166
6900.000000	100.328461	-161.3121
7000.000000	100.389732	-161.0181
7100.000000	100.510628	-160.8288
7200.000000	100.699844	-160.8480
7300.000000	100.962341	-161.2281
7400.000000	101.284439	-162.0630
7500.000000	101.654945	-163.4828
7620.000000	102.156769	-165.9982
7750.000000	102.745300	-170.0784
7880.000000	103.326332	-175.7978
8000.000000	103.787949	177.2297
8120.000000	104.088326	168.3740
8250.000000	104.006004	156.7543
8380.000000	103.259018	144.7954
8500.000000	102.044846	136.0124
8620.000000	100.628319	130.4349
8750.000000	99.133675	127.4620
8850.000000	98.081543	126.6074
9000.000000	96.703270	126.8200
9120.000000	95.732079	127.8018
9250.000000	94.802437	129.3815
9380.000000	93.989883	131.3771
9500.000000	93.323143	133.4344
9620.000000	92.732834	135.8076
9750.000000	92.146439	138.2701
9880.000000	91.638451	140.9152
10000.000000	91.234619	143.5108
10150.000000	90.778458	146.7437
10300.000000	90.388550	149.9268
10440.000000	90.112862	152.8901
10600.000000	89.846718	156.0634
10750.000000	89.668274	159.0733
10900.000000	89.545204	161.9087
11060.000000	89.483910	164.6194
11200.000000	89.481331	166.5978
11380.000000	89.530998	168.7321
11500.000000	89.609245	169.6681
11720.000000	89.684212	170.3057
11800.000000	89.681824	170.3021
12060.000000	89.512108	171.2633
12200.000000	89.504372	172.9164
12410.000000	89.822815	175.8624
12500.000000	90.097404	176.9711
12650.000000	90.749481	178.0700
12800.000000	91.616516	178.1750
13150.000000	94.660019	172.3829
13200.000000	95.236649	170.4393
13400.000000	98.006317	157.5502
13600.000000	100.885551	128.9371
13800.000000	100.763306	85.6238
14000.000000	97.759132	55.1107
14300.000000	93.676132	30.5925
14500.000000	91.681915	19.0360
14750.000000	89.816910	6.1861
15000.000000	88.513672	-5.7235
15250.000000	87.784042	-18.3790
15500.000000	87.455666	-31.1666
15750.000000	87.511238	-44.9523
16000.000000	87.920715	-59.6523
16250.000000	88.686661	-76.5540
16500.000000	89.728729	-96.6412
16750.000000	90.911728	-121.4935
17000.000000	91.890732	-152.6207
17250.000000	92.048981	170.7995
17500.000000	91.127373	133.0821
17750.000000	89.553574	97.8741
18000.000000	87.859413	64.3900
18250.000000	86.322861	30.9534
18500.000000	84.927292	-4.9288
18750.000000	83.710167	-44.1814
19000.000000	82.540337	-89.4139
19250.000000	81.388206	-141.7158
19500.000000	79.784409	155.4803
19750.000000	77.796173	78.8363
